Shimmer_3B52_TimestampSync_FormattedUnix_CAL,Shimmer_3B52_Accel_LN_X_CAL,Shimmer_3B52_Accel_LN_Y_CAL,Shimmer_3B52_Accel_LN_Z_CAL,Shimmer_3B52_Accel_WR_X_CAL,Shimmer_3B52_Accel_WR_Y_CAL,Shimmer_3B52_Accel_WR_Z_CAL,Shimmer_3B52_GSR_Range_CAL,Shimmer_3B52_GSR_Skin_Conductance_CAL,Shimmer_3B52_GSR_Skin_Resistance_CAL,Shimmer_3B52_Gyro_X_CAL,Shimmer_3B52_Gyro_Y_CAL,Shimmer_3B52_Gyro_Z_CAL,Shimmer_3B52_Mag_X_CAL,Shimmer_3B52_Mag_Y_CAL,Shimmer_3B52_Mag_Z_CAL,Shimmer_3B52_PPG_A12_CAL,time
2023/06/30 14:23:58,1.902173913,2.02173913,11.04347826,-0.1268701376,0.09575104728,10.43925793,3,0.00333000333,300300,-0.7175572519,1.435114504,-0.7633587786,0.1604197901,0.06596701649,-0.191904048,1279.120879,1438
2023/06/30 14:23:58,1.869565217,2.010869565,11.0326087,-0.1388390186,0.105326152,10.42728905,3,0.00333000333,300300,-0.5954198473,1.496183206,-0.7786259542,0.1664167916,0.07496251874,-0.1949025487,1277.655678,1438
2023/06/30 14:23:58,1.869565217,1.989130435,11.0326087,-0.1220825853,0.1029323758,10.44165171,3,0.00333000333,300300,-0.5038167939,1.328244275,-0.7938931298,0.1709145427,0.06446776612,-0.191904048,1276.923077,1438
2023/06/30 14:23:58,1.880434783,1.989130435,11.0326087,-0.13165769,0.1101137044,10.44643926,3,0.00333000333,300300,-0.7938931298,1.419847328,-1.053435115,0.1604197901,0.05697151424,-0.1979010495,1277.655678,1438
2023/06/30 14:23:58,1.869565217,2,11.0326087,-0.13165769,0.1029323758,10.43925793,3,0.00333000333,300300,-0.7328244275,1.374045802,-0.9007633588,0.1634182909,0.05997001499,-0.1844077961,1277.655678,1438
2023/06/30 14:23:58,1.869565217,1.989130435,11.01086957,-0.1244763615,0.1077199282,10.44404548,3,0.003774003774,264970.5882,-0.9465648855,1.114503817,-0.8091603053,0.1619190405,0.06896551724,-0.191904048,1277.655678,1438
2023/06/30 14:23:58,1.869565217,2.010869565,11.04347826,-0.1244763615,0.0933572711,10.46319569,3,0.00333000333,300300,-1.022900763,1.389312977,-0.7938931298,0.1664167916,0.06446776612,-0.1859070465,1275.457875,1438
2023/06/30 14:23:58,1.858695652,2,11.01086957,-0.1172950329,0.09575104728,10.4225015,3,0.00333000333,300300,-0.9312977099,1.465648855,-0.7480916031,0.1664167916,0.06896551724,-0.1904047976,1276.190476,1438
2023/06/30 14:23:58,1.858695652,1.989130435,11.04347826,-0.1388390186,0.1005385996,10.44883303,3,0.003774003774,264970.5882,-0.6106870229,1.34351145,-1.053435115,0.1649175412,0.07946026987,-0.191904048,1276.190476,1438
2023/06/30 14:23:58,1.847826087,2.010869565,11.02173913,-0.1340514662,0.0933572711,10.45601436,3,0.00333000333,300300,-0.7786259542,1.221374046,-0.9007633588,0.1634182909,0.06596701649,-0.1949025487,1280.586081,1438
2023/06/30 14:23:58,1.836956522,2,11.0326087,-0.1412327947,0.09814482346,10.44643926,3,0.00333000333,300300,-0.7022900763,1.465648855,-0.8091603053,0.1634182909,0.06896551724,-0.1874062969,1279.120879,1438
2023/06/30 14:23:58,1.869565217,2.010869565,11.02173913,-0.1244763615,0.09575104728,10.43447038,3,0.00333000333,300300,-0.9923664122,1.251908397,-0.9923664122,0.1604197901,0.06896551724,-0.191904048,1282.051282,1438
2023/06/30 14:23:58,1.858695652,1.989130435,11,-0.1268701376,0.1149012567,10.44404548,3,0.003774003774,264970.5882,-0.8549618321,1.160305344,-0.6870229008,0.1574212894,0.07646176912,-0.1949025487,1283.516484,1438
2023/06/30 14:23:58,1.869565217,1.989130435,11,-0.1244763615,0.08617594255,10.44404548,3,0.00333000333,300300,-0.6717557252,1.297709924,-0.7633587786,0.1619190405,0.06596701649,-0.1934032984,1284.981685,1438
2023/06/30 14:23:58,1.869565217,2,11.01086957,-0.1292639138,0.08617594255,10.44165171,3,0.00333000333,300300,-1.038167939,1.58778626,-0.7175572519,0.167916042,0.06446776612,-0.1949025487,1282.051282,1438
2023/06/30 14:23:58,1.847826087,2.02173913,11.0326087,-0.1364452424,0.09575104728,10.43925793,3,0.00333000333,300300,-0.8244274809,0.9007633588,-0.7175572519,0.1709145427,0.06746626687,-0.1979010495,1279.85348,1438
2023/06/30 14:23:58,1.869565217,2,11.0326087,-0.08856971873,0.08138839019,10.43686415,3,0.003774003774,264970.5882,-0.5801526718,1.389312977,-0.8702290076,0.1619190405,0.06746626687,-0.1934032984,1277.655678,1438
2023/06/30 14:23:59,1.891304348,1.989130435,11.04347826,-0.1508078995,0.1077199282,10.44165171,3,0.003774003774,264970.5882,-1.86259542,-2.045801527,-0.9465648855,0.1649175412,0.06296851574,-0.1889055472,1276.923077,1439
2023/06/30 14:23:59,1.02173913,2.445652174,10.97826087,-0.8138839019,0.4308797127,10.39856373,3,0.003774003774,264970.5882,0.9465648855,7.145038168,24.50381679,0.1604197901,0.07196401799,-0.1934032984,1286.446886,1439
2023/06/30 14:23:59,1.923913043,1.934782609,11.07608696,-0.1627767804,0.09575104728,10.49910233,3,0.00333000333,300300,-0.4885496183,1.572519084,42.76335878,0.1649175412,0.07046476762,-0.1844077961,1277.655678,1439
2023/06/30 14:23:59,2.413043478,1.695652174,11.0326087,0.6870137642,-0.2776780371,10.4320766,3,0.003774003774,264970.5882,-1.969465649,-1.496183206,6.534351145,0.1619190405,0.05247376312,-0.1844077961,1276.923077,1439
2023/06/30 14:23:59,1.706521739,2.065217391,11.06521739,-0.2968282466,0.1651705566,10.48473968,3,0.00333000333,300300,-2.335877863,-2.229007634,-0.7022900763,0.1619190405,0.05397301349,-0.179910045,1274.725275,1439
2023/06/30 14:23:59,1.804347826,2.010869565,11.0326087,-0.1603830042,0.09814482346,10.44165171,3,0.00333000333,300300,-1.34351145,0.8549618321,-0.9770992366,0.1574212894,0.06296851574,-0.1844077961,1275.457875,1439
2023/06/30 14:23:59,1.836956522,2.010869565,11.0326087,-0.1364452424,0.09575104728,10.43686415,3,0.003774003774,264970.5882,-1.038167939,1.007633588,-0.9312977099,0.1574212894,0.07496251874,-0.179910045,1276.190476,1439
2023/06/30 14:23:59,1.869565217,1.989130435,11.0326087,-0.1292639138,0.1029323758,10.43925793,3,0.003774003774,264970.5882,-0.9465648855,1.282442748,-0.7786259542,0.1604197901,0.07196401799,-0.1769115442,1276.923077,1439
2023/06/30 14:23:59,1.847826087,2,11.0326087,-0.1244763615,0.1005385996,10.43447038,3,0.00333000333,300300,-0.8549618321,1.34351145,-0.8854961832,0.1619190405,0.07196401799,-0.1754122939,1276.923077,1439
2023/06/30 14:23:59,1.880434783,2.010869565,11.01086957,-0.1268701376,0.0933572711,10.43686415,3,0.00333000333,300300,-0.9312977099,1.358778626,-0.8854961832,0.1634182909,0.06446776612,-0.1814092954,1276.923077,1439
2023/06/30 14:23:59,1.869565217,2,11.02173913,-0.1244763615,0.1029323758,10.43925793,3,0.003774003774,264970.5882,-0.641221374,1.435114504,-0.9312977099,0.1634182909,0.06896551724,-0.1739130435,1280.586081,1439
2023/06/30 14:23:59,1.869565217,1.989130435,11.02173913,-0.1412327947,0.1149012567,10.42489527,3,0.00333000333,300300,-0.8396946565,1.404580153,-0.7175572519,0.1619190405,0.06146926537,-0.1874062969,1282.783883,1439
2023/06/30 14:23:59,1.880434783,2,11.04347826,-0.1292639138,0.1005385996,10.43925793,3,0.00333000333,300300,-0.7022900763,1.312977099,-0.6870229008,0.1574212894,0.07646176912,-0.1709145427,1279.85348,1439
2023/06/30 14:23:59,1.826086957,2,11.0326087,-0.1268701376,0.09814482346,10.43686415,3,0.003774003774,264970.5882,-0.6717557252,1.419847328,-0.7938931298,0.1574212894,0.06296851574,-0.191904048,1279.120879,1439
2023/06/30 14:23:59,1.858695652,1.989130435,11.0326087,-0.1244763615,0.09575104728,10.43686415,3,0.003774003774,264970.5882,-1.007633588,1.190839695,-0.9007633588,0.1574212894,0.06296851574,-0.1784107946,1277.655678,1439
2023/06/30 14:23:59,1.858695652,2.010869565,11.02173913,-0.1268701376,0.09575104728,10.43925793,3,0.003774003774,264970.5882,-0.7022900763,1.251908397,-0.9465648855,0.1529235382,0.06296851574,-0.1784107946,1280.586081,1439
2023/06/30 14:23:59,1.869565217,2.02173913,11.02173913,-0.1220825853,0.09814482346,10.45601436,3,0.00333000333,300300,-0.8244274809,1.450381679,-0.8549618321,0.1589205397,0.08095952024,-0.1769115442,1282.783883,1439
2023/06/30 14:23:59,1.858695652,2.010869565,11.02173913,-0.1292639138,0.1125074806,10.42968282,3,0.00333000333,300300,-0.7938931298,1.633587786,-0.8091603053,0.155922039,0.07346326837,-0.1784107946,1283.516484,1439
2023/06/30 14:23:59,1.858695652,1.989130435,11.01086957,-0.1388390186,0.09096349491,10.45362059,3,0.00333000333,300300,-0.7480916031,1.328244275,-0.7480916031,0.155922039,0.06596701649,-0.1829085457,1280.586081,1439
2023/06/30 14:23:59,1.456521739,2.27173913,10.93478261,-0.236983842,0.1436265709,10.46558947,3,0.003774003774,264970.5882,0.03053435115,3.633587786,13.84732824,0.155922039,0.06896551724,-0.1784107946,1293.040293,1439
2023/06/30 14:23:59,1.076086957,1.847826087,11.06521739,-0.7612208259,0.289646918,10.45840814,3,0.00333000333,300300,-1.038167939,0.106870229,27.41984733,0.1589205397,0.07046476762,-0.1724137931,1284.981685,1439
2023/06/30 14:23:59,2.054347826,1.75,11.02173913,-1.369239976,0.1220825853,10.27887493,3,0.00333000333,300300,-0.7480916031,1.816793893,-1.190839695,0.1604197901,0.06446776612,-0.1724137931,1284.249084,1439
2023/06/30 14:23:59,1.869565217,2.010869565,11.02173913,-0.1196888091,0.0933572711,10.45122681,3,0.00333000333,300300,-0.9312977099,1.114503817,-0.7786259542,0.155922039,0.05547226387,-0.1739130435,1284.981685,1439
2023/06/30 14:23:59,1.880434783,2,11.01086957,-0.1220825853,0.1005385996,10.43447038,3,0.00333000333,300300,-0.7328244275,1.236641221,-0.7022900763,0.1574212894,0.07196401799,-0.1739130435,1281.318681,1439
2023/06/30 14:23:59,1.847826087,2,11.01086957,-0.1268701376,0.1029323758,10.44404548,3,0.00333000333,300300,-0.7022900763,1.175572519,-0.8854961832,0.1544227886,0.06596701649,-0.1769115442,1279.85348,1439
2023/06/30 14:23:59,2,2.119565217,11.02173913,-0.3399162178,-0.2728904847,10.44404548,3,0.00333000333,300300,-1.129770992,1.236641221,-9.58778626,0.1574212894,0.06146926537,-0.1784107946,1282.051282,1439
2023/06/30 14:23:59,1.804347826,1.923913043,11.02173913,-0.105326152,0.1172950329,10.4320766,3,0.003774003774,264970.5882,-0.6717557252,1.083969466,-10.44274809,0.1574212894,0.07196401799,-0.1769115442,1283.516484,1439
2023/06/30 14:23:59,1.880434783,2.010869565,11.0326087,-0.08138839019,0.1819269898,10.4320766,3,0.003774003774,264970.5882,-0.5954198473,1.755725191,-7.557251908,0.1574212894,0.07496251874,-0.1664167916,1280.586081,1439
2023/06/30 14:23:59,1.804347826,1.891304348,11.04347826,-0.09096349491,0.157989228,10.45362059,3,0.00333000333,300300,-0.9312977099,1.664122137,-9.129770992,0.1499250375,0.06296851574,-0.1709145427,1278.388278,1439
2023/06/30 14:23:59,1.815217391,1.923913043,11.02173913,-0.105326152,0.1388390186,10.44404548,3,0.00333000333,300300,-1.160305344,1.282442748,-10.41221374,0.1589205397,0.06896551724,-0.1724137931,1282.051282,1439
2023/06/30 14:23:59,1.967391304,2.086956522,11.02173913,-0.105326152,0.157989228,10.43925793,3,0.00333000333,300300,-1.022900763,1.114503817,-8.290076336,0.1484257871,0.07646176912,-0.1709145427,1283.516484,1439
2023/06/30 14:23:59,1.880434783,2.065217391,11.02173913,-0.1292639138,0.04548174746,10.44404548,3,0.00333000333,300300,-0.9618320611,1.374045802,-7.282442748,0.155922039,0.06296851574,-0.1724137931,1284.249084,1439
2023/06/30 14:23:59,1.880434783,2.02173913,11.0326087,-0.09575104728,0.1938958707,10.45362059,3,0.00333000333,300300,-0.5801526718,1.328244275,-3.34351145,0.1544227886,0.07046476762,-0.1724137931,1280.586081,1439
2023/06/30 14:23:59,1.869565217,2,11.04347826,-0.1244763615,0.1364452424,10.44404548,3,0.003774003774,264970.5882,-0.8396946565,1.053435115,-1.099236641,0.1574212894,0.06446776612,-0.1784107946,1278.388278,1439
2023/06/30 14:23:59,1.869565217,1.97826087,11.04347826,-0.1268701376,0.1029323758,10.41771394,3,0.003774003774,264970.5882,-0.6717557252,1.34351145,-0.8244274809,0.1514242879,0.06446776612,-0.1694152924,1277.655678,1439
2023/06/30 14:23:59,1.847826087,2.010869565,11.02173913,-0.105326152,0.1077199282,10.4320766,3,0.00333000333,300300,-0.7633587786,0.9618320611,-0.7328244275,0.1574212894,0.06746626687,-0.1724137931,1280.586081,1439
2023/06/30 14:23:59,1.858695652,2.010869565,11.0326087,-0.1196888091,0.1101137044,10.45122681,3,0.00333000333,300300,-0.8244274809,0.9007633588,-1.114503817,0.155922039,0.06146926537,-0.167916042,1279.120879,1439
2023/06/30 14:23:59,1.858695652,1.989130435,11.06521739,-0.105326152,0.09814482346,10.43925793,3,0.00333000333,300300,-0.5801526718,1.358778626,-0.7480916031,0.155922039,0.06746626687,-0.167916042,1276.923077,1439
2023/06/30 14:23:59,1.902173913,2,11.04347826,-0.1149012567,0.09096349491,10.44643926,3,0.00333000333,300300,-1.114503817,1.145038168,-0.7480916031,0.1529235382,0.07046476762,-0.1739130435,1276.923077,1439
2023/06/30 14:23:59,1.880434783,2.010869565,11.02173913,-0.1149012567,0.08617594255,10.43447038,3,0.003774003774,264970.5882,-0.7480916031,1.007633588,-0.9312977099,0.1544227886,0.07346326837,-0.167916042,1281.318681,1439
2023/06/30 14:23:59,1.880434783,1.989130435,11.02173913,-0.1125074806,0.105326152,10.45362059,3,0.00333000333,300300,-0.5648854962,1.435114504,-0.8702290076,0.1574212894,0.07796101949,-0.1634182909,1282.783883,1439
2023/06/30 14:23:59,1.858695652,2,11.0326087,-0.1077199282,0.09814482346,10.42968282,3,0.00333000333,300300,-0.6259541985,1.175572519,-0.5954198473,0.1589205397,0.07796101949,-0.1664167916,1279.85348,1439
2023/06/30 14:23:59,1.869565217,2,11.02173913,-0.1125074806,0.09096349491,10.43925793,3,0.00333000333,300300,-0.7480916031,1.312977099,-0.8396946565,0.1454272864,0.07496251874,-0.1649175412,1282.051282,1439
2023/06/30 14:23:59,1.880434783,2,11.0326087,-0.1101137044,0.09575104728,10.44643926,3,0.003774003774,264970.5882,-0.6870229008,1.282442748,-0.6870229008,0.1619190405,0.07196401799,-0.1709145427,1279.85348,1439
2023/06/30 14:23:59,1.858695652,2,11.0326087,-0.1125074806,0.1029323758,10.44404548,3,0.00333000333,300300,-0.7480916031,0.9618320611,-0.6717557252,0.1589205397,0.06446776612,-0.1709145427,1279.120879,1439
2023/06/30 14:23:59,1.869565217,1.989130435,11.04347826,-0.1172950329,0.1029323758,10.43925793,3,0.00333000333,300300,-1.038167939,1.34351145,-1.145038168,0.1664167916,0.06596701649,-0.1649175412,1276.923077,1439
2023/06/30 14:23:59,1.869565217,2,11.0326087,-0.1101137044,0.1101137044,10.43925793,3,0.00333000333,300300,-0.7480916031,1.145038168,-1.083969466,0.1544227886,0.06746626687,-0.167916042,1276.923077,1439
2023/06/30 14:23:59,1.869565217,2,11.02173913,-0.1196888091,0.105326152,10.44883303,3,0.003774003774,264970.5882,-0.8396946565,0.7786259542,-0.8091603053,0.1529235382,0.07946026987,-0.1634182909,1280.586081,1439
2023/06/30 14:23:59,1.880434783,2.010869565,11.02173913,-0.1125074806,0.09814482346,10.44883303,3,0.003774003774,264970.5882,-1.022900763,1.129770992,-0.7328244275,0.1574212894,0.07196401799,-0.1694152924,1283.516484,1439
2023/06/30 14:23:59,1.869565217,1.989130435,11.02173913,-0.1172950329,0.1005385996,10.44404548,3,0.00333000333,300300,-0.8244274809,1.374045802,-1.06870229,0.1604197901,0.06896551724,-0.1724137931,1284.249084,1439
2023/06/30 14:24:00,1.869565217,2.010869565,11.02173913,-0.1029323758,0.09096349491,10.45122681,3,0.003774003774,264970.5882,-0.6870229008,1.465648855,-1.083969466,0.155922039,0.07796101949,-0.1694152924,1284.981685,1440
2023/06/30 14:24:00,1.869565217,2,11.0326087,-0.1172950329,0.09575104728,10.44643926,3,0.003774003774,264970.5882,-0.6564885496,1.297709924,-0.7480916031,0.1514242879,0.06596701649,-0.1769115442,1280.586081,1440
2023/06/30 14:24:00,1.869565217,1.989130435,11.0326087,-0.105326152,0.1005385996,10.43686415,3,0.00333000333,300300,-0.5648854962,1.34351145,-0.8549618321,0.1529235382,0.07046476762,-0.1709145427,1278.388278,1440
2023/06/30 14:24:00,1.880434783,2,10.98913043,-0.105326152,0.105326152,10.44643926,3,0.003774003774,264970.5882,-0.5801526718,1.557251908,-0.8702290076,0.1484257871,0.07496251874,-0.1634182909,1282.783883,1440
2023/06/30 14:24:00,1.891304348,2.010869565,10.98913043,-0.1101137044,0.09575104728,10.44883303,3,0.00333000333,300300,-0.7633587786,1.099236641,-0.8244274809,0.1544227886,0.06746626687,-0.1649175412,1284.981685,1440
2023/06/30 14:24:00,1.880434783,2.010869565,11.0326087,-0.1125074806,0.1005385996,10.43447038,3,0.00333000333,300300,-0.9007633588,1.389312977,-0.5190839695,0.1574212894,0.06746626687,-0.1619190405,1282.051282,1440
2023/06/30 14:24:00,1.891304348,2,11,-0.1077199282,0.09096349491,10.43686415,3,0.003774003774,264970.5882,-0.9007633588,1.312977099,-0.9770992366,0.1589205397,0.06446776612,-0.1709145427,1283.516484,1440
2023/06/30 14:24:00,1.891304348,1.989130435,11.02173913,-0.1149012567,0.08856971873,10.44404548,3,0.003774003774,264970.5882,-0.7175572519,1.190839695,-0.9770992366,0.155922039,0.07346326837,-0.1664167916,1284.249084,1440
2023/06/30 14:24:00,1.880434783,1.989130435,11.0326087,-0.1077199282,0.09096349491,10.43925793,3,0.003774003774,264970.5882,-0.6106870229,1.511450382,-0.8854961832,0.155922039,0.07496251874,-0.1739130435,1280.586081,1440
2023/06/30 14:24:00,1.902173913,1.989130435,11.0326087,-0.09096349491,0.09096349491,10.43925793,3,0.00333000333,300300,-0.6564885496,1.190839695,-1.20610687,0.155922039,0.08395802099,-0.1649175412,1279.120879,1440
2023/06/30 14:24:00,1.880434783,2,11.01086957,-0.09814482346,0.09096349491,10.44404548,3,0.00333000333,300300,-0.7938931298,1.419847328,-0.9312977099,0.1589205397,0.06896551724,-0.1709145427,1278.388278,1440
2023/06/30 14:24:00,1.891304348,2,11.04347826,-0.1005385996,0.105326152,10.44404548,3,0.00333000333,300300,-0.7328244275,1.603053435,-0.9160305344,0.1544227886,0.06296851574,-0.1709145427,1276.923077,1440
2023/06/30 14:24:00,1.880434783,2,11.01086957,-0.1029323758,0.09814482346,10.43925793,3,0.00333000333,300300,-0.8091603053,1.312977099,-0.8396946565,0.1484257871,0.07046476762,-0.1694152924,1276.923077,1440
2023/06/30 14:24:00,1.880434783,2,10.98913043,-0.1101137044,0.1005385996,10.45122681,3,0.00333000333,300300,-0.8549618321,1.251908397,-0.6717557252,0.155922039,0.06296851574,-0.1754122939,1282.051282,1440
2023/06/30 14:24:00,1.902173913,2,11.01086957,-0.1172950329,0.105326152,10.43447038,3,0.003774003774,264970.5882,-0.8702290076,1.358778626,-0.9007633588,0.1694152924,0.07796101949,-0.1739130435,1279.85348,1440
2023/06/30 14:24:00,1.880434783,1.989130435,11.0326087,-0.1005385996,0.08138839019,10.4320766,3,0.003774003774,264970.5882,-0.8396946565,1.038167939,-0.7328244275,0.1619190405,0.06596701649,-0.1709145427,1279.120879,1440
2023/06/30 14:24:00,1.891304348,2,11.02173913,-0.1220825853,0.09814482346,10.44165171,3,0.00333000333,300300,-0.9618320611,1.236641221,-0.9618320611,0.1694152924,0.07496251874,-0.1709145427,1282.051282,1440
2023/06/30 14:24:00,1.869565217,2.010869565,11.01086957,-0.105326152,0.09814482346,10.44404548,3,0.00333000333,300300,-0.7938931298,1.251908397,-0.7175572519,0.1499250375,0.06746626687,-0.1739130435,1279.85348,1440
2023/06/30 14:24:00,1.880434783,2,11.02173913,-0.1029323758,0.09814482346,10.44883303,3,0.003774003774,264970.5882,-0.7328244275,1.190839695,-0.6717557252,0.155922039,0.06596701649,-0.1604197901,1282.051282,1440
2023/06/30 14:24:00,1.869565217,1.989130435,11.02173913,-0.105326152,0.09575104728,10.44643926,3,0.003774003774,264970.5882,-0.6564885496,1.236641221,-0.8244274809,0.1634182909,0.08245877061,-0.1664167916,1283.516484,1440
2023/06/30 14:24:00,1.880434783,2.02173913,11.02173913,-0.1077199282,0.08856971873,10.43925793,3,0.00333000333,300300,-0.8244274809,1.20610687,-0.8396946565,0.1529235382,0.06446776612,-0.1709145427,1284.981685,1440
2023/06/30 14:24:00,1.858695652,1.989130435,11.02173913,-0.1268701376,0.1005385996,10.44643926,3,0.00333000333,300300,-0.8854961832,1.190839695,-1.114503817,0.1544227886,0.07046476762,-0.1649175412,1284.981685,1440
2023/06/30 14:24:00,1.869565217,2.010869565,11.01086957,-0.1172950329,0.08617594255,10.45840814,3,0.00333000333,300300,-0.8244274809,1.236641221,-0.7022900763,0.1604197901,0.07946026987,-0.1634182909,1281.318681,1440
2023/06/30 14:24:00,1.880434783,2,11.02173913,-0.1125074806,0.09575104728,10.44165171,3,0.00333000333,300300,-0.5648854962,1.450381679,-0.8396946565,0.1589205397,0.07196401799,-0.1664167916,1282.783883,1440
2023/06/30 14:24:00,1.869565217,1.989130435,11.02173913,-0.1101137044,0.09814482346,10.44404548,3,0.00333000333,300300,-0.8702290076,1.419847328,-0.7786259542,0.1514242879,0.08245877061,-0.1664167916,1284.249084,1440
2023/06/30 14:24:00,1.880434783,2,11.0326087,-0.09575104728,0.1005385996,10.43686415,3,0.003774003774,264970.5882,-0.7175572519,1.648854962,-0.8549618321,0.1619190405,0.06596701649,-0.1694152924,1280.586081,1440
2023/06/30 14:24:00,1.891304348,1.989130435,11.02173913,-0.1005385996,0.1005385996,10.44165171,3,0.00333000333,300300,-0.534351145,1.282442748,-1.022900763,0.1634182909,0.06446776612,-0.1694152924,1283.516484,1440
2023/06/30 14:24:00,1.880434783,2,11.0326087,-0.1101137044,0.09814482346,10.44883303,3,0.003774003774,264970.5882,-0.8091603053,1.251908397,-0.6717557252,0.1634182909,0.07946026987,-0.1589205397,1279.85348,1440
2023/06/30 14:24:00,1.891304348,2.010869565,11.02173913,-0.1220825853,0.0933572711,10.43447038,3,0.00333000333,300300,-0.641221374,1.648854962,-1.007633588,0.1634182909,0.06296851574,-0.1694152924,1282.051282,1440
2023/06/30 14:24:00,1.880434783,1.989130435,11.02173913,-0.0933572711,0.08856971873,10.44404548,3,0.00333000333,300300,-0.9007633588,1.404580153,-0.8396946565,0.1574212894,0.07796101949,-0.1619190405,1283.516484,1440
2023/06/30 14:24:00,1.891304348,1.989130435,11.05434783,-0.1077199282,0.1029323758,10.43925793,3,0.00333000333,300300,-0.8244274809,1.679389313,-0.9007633588,0.1589205397,0.07046476762,-0.1754122939,1275.457875,1440
2023/06/30 14:24:00,1.869565217,2,11.02173913,-0.1029323758,0.1005385996,10.43925793,3,0.00333000333,300300,-0.8549618321,1.267175573,-0.9007633588,0.1604197901,0.06596701649,-0.167916042,1280.586081,1440
2023/06/30 14:24:00,1.989130435,2.510869565,11.02173913,-0.2585278276,0.1101137044,10.4727708,3,0.003774003774,264970.5882,-0.320610687,2.595419847,5.20610687,0.1574212894,0.06746626687,-0.1709145427,1282.783883,1440
2023/06/30 14:24:00,1.826086957,2.413043478,10.98913043,-0.03351286655,0.1532016756,10.43447038,3,0.00333000333,300300,-0.6870229008,1.267175573,6.748091603,0.155922039,0.06896551724,-0.1754122939,1284.981685,1440
2023/06/30 14:24:00,1.836956522,2.760869565,11.02173913,-0.1172950329,1.029323758,10.45840814,3,0.003774003774,264970.5882,-1.221374046,1.190839695,0.06106870229,0.1604197901,0.08395802099,-0.155922039,1284.981685,1440
2023/06/30 14:24:00,1.945652174,3.076086957,11.0326087,-0.1149012567,1.314183124,10.43925793,3,0.00333000333,300300,-0.8396946565,0.8549618321,1.923664122,0.1574212894,0.07646176912,-0.1694152924,1281.318681,1440
2023/06/30 14:24:00,1.913043478,3.543478261,10.97826087,-0.1340514662,1.496110114,10.42728905,3,0.00333000333,300300,-0.5190839695,1.20610687,3.938931298,0.1604197901,0.04797601199,-0.1829085457,1288.644689,1440
2023/06/30 14:24:00,1.956521739,3.608695652,11.06521739,-0.1172950329,1.926989826,10.52543387,3,0.004218004218,237078.9474,-0.9465648855,0.04580152672,2.183206107,0.1469265367,0.05547226387,-0.1889055472,1281.318681,1440
2023/06/30 14:24:00,1.869565217,4.706521739,11.11956522,-0.1292639138,2.817474566,10.45601436,3,0.003774003774,264970.5882,-0.8702290076,-2.442748092,-3.801526718,0.1499250375,0.04197901049,-0.2083958021,1269.59707,1440
2023/06/30 14:24:00,1.858695652,5.576086957,10.88043478,-0.04308797127,3.638539797,10.54458408,3,0.003774003774,264970.5882,0.2748091603,1.740458015,6.748091603,0.1454272864,0.0299850075,-0.2338830585,1287.912088,1440
2023/06/30 14:24:00,1.945652174,6.065217391,10.9673913,-0.1292639138,5.321364452,10.42968282,3,0.003774003774,264970.5882,-1.251908397,1.267175573,1.007633588,0.1484257871,0.0179910045,-0.2713643178,1287.912088,1440
2023/06/30 14:24:00,2.065217391,6.684782609,10.93478261,-0.157989228,5.2663076,10.17594255,3,0.00333000333,300300,-0.04580152672,1.221374046,6.030534351,0.1514242879,0.011994003,-0.299850075,1297.435897,1440
2023/06/30 14:24:00,1.706521739,6.086956522,11.19565217,-0.2274087373,4.885697187,10.3818073,3,0.00333000333,300300,0.09160305344,-6.503816794,-1.114503817,0.1739130435,0.004497751124,-0.3523238381,1266.666667,1440
2023/06/30 14:24:00,1.891304348,6.347826087,10.72826087,-0.3087971275,4.87133453,10.23818073,3,0.003774003774,264970.5882,-0.6259541985,6.702290076,-17.35877863,0.1934032984,0.011994003,-0.3868065967,1301.098901,1440
2023/06/30 14:24:00,2.130434783,5.456521739,10.89130435,0.2034709755,4.205864752,10.13285458,3,0.003774003774,264970.5882,-1.603053435,-2.320610687,5.099236641,0.203898051,0.01499250375,-0.4062968516,1302.564103,1440
2023/06/30 14:24:00,2.652173913,5.72826087,10.82608696,-0.5122681029,4.416517056,9.895870736,3,0.00333000333,300300,-0.6564885496,7.389312977,-22.67175573,0.203898051,0.03298350825,-0.4182908546,1299.6337,1440
2023/06/30 14:24:00,1.076086957,4.826086957,10.93478261,0.2489527229,3.12866547,9.948533812,3,0.00333000333,300300,-2.442748092,-2.488549618,-1.022900763,0.1934032984,0.04347826087,-0.4242878561,1285.714286,1440
2023/06/30 14:24:00,1.684782609,4.152173913,11.20652174,-0.06223818073,2.305206463,9.560742071,3,0.003774003774,264970.5882,-7.633587786,0.427480916,14.36641221,0.1739130435,0.03448275862,-0.4272863568,1240.29304,1440
2023/06/30 14:24:00,1.760869565,3.510869565,11.09782609,-0.3207660084,2.147217235,9.771394375,3,0.003774003774,264970.5882,1.145038168,8.152671756,-13.2519084,0.1964017991,0.04497751124,-0.4242878561,1236.630037,1440
2023/06/30 14:24:00,2.173913043,2.173913043,10.2173913,0.4356672651,1.05326152,8.866546978,3,0.00333000333,300300,-5.374045802,-0.3358778626,46.80916031,0.1979010495,0.05547226387,-0.4287856072,1175.091575,1440
2023/06/30 14:24:01,0.4782608696,4.195652174,10.86956522,0.2992220227,2.755236385,9.577498504,3,0.003774003774,264970.5882,1.389312977,-7.038167939,-47.32824427,0.2008995502,0.06746626687,-0.4167916042,1239.56044,1441
2023/06/30 14:24:01,2.760869565,0.9673913043,11.2173913,0.3590664273,-0.500299222,9.091561939,3,0.003774003774,264970.5882,2.366412214,-7.236641221,34.38167939,0.1859070465,0.1004497751,-0.4137931034,1202.197802,1441
2023/06/30 14:24:01,-0.6739130435,3.543478261,10.44565217,-0.6247755835,-1.000598444,9.847995212,3,0.00333000333,300300,-6.244274809,5.893129771,-84.21374046,0.1724137931,0.09445277361,-0.4032983508,1133.333333,1441
2023/06/30 14:24:01,3.239130435,-3.706521739,10.97826087,0.3135846798,-5.675643327,10.32675045,3,0.00333000333,300300,-0.4885496183,2.534351145,-0.8244274809,0.1619190405,0.09745127436,-0.383808096,1244.688645,1441
2023/06/30 14:24:01,2.576086957,-4.119565217,10.86956522,-1.019748654,-5.421903052,10.38420108,3,0.00333000333,300300,-0.3664122137,0.7175572519,12.90076336,0.1394302849,0.1214392804,-0.35982009,1323.076923,1441
2023/06/30 14:24:01,1.793478261,-3.315217391,11.29347826,-0.1795332136,-6.573309396,10.70496709,3,0.00333000333,300300,0.8854961832,4.610687023,12.19847328,0.1394302849,0.1214392804,-0.3253373313,1289.377289,1441
2023/06/30 14:24:01,1.597826087,-2.902173913,11.11956522,-0.1436265709,-7.104727708,10.11131059,3,0.00333000333,300300,4.458015267,11.19083969,-23.75572519,0.131934033,0.1244377811,-0.2923538231,1297.435897,1441
2023/06/30 14:24:01,1.956521739,-3.47826087,10.75,0.07420706164,-6.807899461,10.2812687,3,0.00333000333,300300,4.778625954,15.16030534,-7.832061069,0.1259370315,0.1139430285,-0.2383808096,1338.461538,1441
2023/06/30 14:24:01,1.641304348,-2.880434783,11.27173913,-0.06941950928,-5.663674446,10.40335129,3,0.00333000333,300300,0.2442748092,0.3511450382,6.992366412,0.1109445277,0.1109445277,-0.1994002999,1278.388278,1441
2023/06/30 14:24:01,1.826086957,-2.304347826,11.07608696,-0.2154398564,-4.859365649,10.45601436,3,0.003774003774,264970.5882,-0.7786259542,0.5038167939,-1.786259542,0.1154422789,0.1184407796,-0.1724137931,1279.85348,1441
2023/06/30 14:24:01,1.869565217,-1.086956522,11.04347826,-0.105326152,-4.296828247,10.41771394,3,0.00333000333,300300,-0.8854961832,2.183206107,-2.839694656,0.1154422789,0.1169415292,-0.1544227886,1280.586081,1441
2023/06/30 14:24:01,1.858695652,-0.7717391304,11.04347826,-0.1149012567,-3.597845601,10.45840814,3,0.003774003774,264970.5882,-0.8091603053,1.20610687,-0.1679389313,0.1154422789,0.1124437781,-0.1379310345,1276.923077,1441
2023/06/30 14:24:01,1.869565217,1.934782609,11.08695652,-0.1412327947,-1.256732496,10.42968282,3,0.00333000333,300300,-0.6870229008,0.8091603053,-0.9312977099,0.11994003,0.1019490255,-0.1304347826,1268.131868,1441
2023/06/30 14:24:01,1.869565217,2.02173913,10.94565217,-0.1077199282,0.1268701376,10.40095751,3,0.00333000333,300300,-0.5801526718,1.312977099,-0.8396946565,0.1184407796,0.107946027,-0.1379310345,1280.586081,1441
2023/06/30 14:24:01,1.858695652,2.032608696,11.07608696,-0.1149012567,0.1364452424,10.49192101,3,0.003774003774,264970.5882,-0.6717557252,1.099236641,-0.9770992366,0.1124437781,0.09895052474,-0.131934033,1271.794872,1441
2023/06/30 14:24:01,1.880434783,2.032608696,11.02173913,-0.1005385996,0.1268701376,10.38659485,3,0.00333000333,300300,-0.7480916031,1.007633588,-0.7633587786,0.1139430285,0.1049475262,-0.1394302849,1277.655678,1441
2023/06/30 14:24:01,1.891304348,2.054347826,10.98913043,-0.1196888091,0.1364452424,10.46319569,3,0.00333000333,300300,-0.8854961832,1.358778626,-0.7786259542,0.1124437781,0.1094452774,-0.1364317841,1283.516484,1441
2023/06/30 14:24:01,1.760869565,1.326086957,11.06521739,0.08378216637,2.750448833,10.44883303,3,0.003774003774,264970.5882,-0.5954198473,1.847328244,11.75572519,0.11994003,0.1004497751,-0.1424287856,1281.318681,1441
2023/06/30 14:24:01,1.902173913,2.130434783,10.97826087,-0.06702573309,0.2944344704,10.43686415,3,0.00333000333,300300,-0.5648854962,1.297709924,8.015267176,0.1109445277,0.1004497751,-0.1289355322,1287.912088,1441
2023/06/30 14:24:01,1.858695652,1.880434783,11.0326087,-0.1460203471,-0.2010771993,10.46319569,3,0.003774003774,264970.5882,-0.6106870229,1.190839695,5.740458015,0.1214392804,0.1139430285,-0.131934033,1282.051282,1441
2023/06/30 14:24:01,1.858695652,1.956521739,11.04347826,-0.1196888091,0.01675643327,10.42728905,3,0.00333000333,300300,-0.5190839695,1.297709924,3.603053435,0.1124437781,0.1154422789,-0.1304347826,1278.388278,1441
2023/06/30 14:24:01,1.858695652,1.945652174,11.01086957,-0.1723518851,-0.3040095751,10.44883303,3,0.00333000333,300300,-0.8702290076,1.160305344,-0.8091603053,0.1139430285,0.1064467766,-0.1304347826,1278.388278,1441
2023/06/30 14:24:01,1.869565217,2.032608696,11.01086957,-0.1125074806,0.1268701376,10.42728905,3,0.00333000333,300300,-0.8091603053,1.34351145,-1.06870229,0.1064467766,0.1139430285,-0.1289355322,1279.120879,1441
2023/06/30 14:24:01,1.869565217,2.043478261,11.04347826,-0.1172950329,0.1292639138,10.45362059,3,0.00333000333,300300,-0.6870229008,1.160305344,-0.9923664122,0.1124437781,0.1154422789,-0.1334332834,1277.655678,1441
2023/06/30 14:24:01,1.902173913,2.02173913,11.05434783,-0.09814482346,0.1268701376,10.43447038,3,0.00333000333,300300,-1.083969466,1.312977099,-0.8396946565,0.1139430285,0.1019490255,-0.131934033,1271.794872,1441
2023/06/30 14:24:01,1.869565217,2.010869565,11.02173913,-0.1196888091,0.13165769,10.44404548,3,0.00333000333,300300,-0.8549618321,1.34351145,-0.9160305344,0.11994003,0.1019490255,-0.1364317841,1278.388278,1441
2023/06/30 14:24:01,1.880434783,2.032608696,11.02173913,-0.1125074806,0.1436265709,10.44883303,3,0.00333000333,300300,-0.7175572519,1.404580153,-0.8091603053,0.1139430285,0.09895052474,-0.1394302849,1282.051282,1441
2023/06/30 14:24:01,1.891304348,2.032608696,11.02173913,-0.1149012567,0.1340514662,10.45362059,3,0.003774003774,264970.5882,-1.053435115,1.251908397,-0.8549618321,0.1244377811,0.1034482759,-0.131934033,1284.981685,1441
2023/06/30 14:24:01,1.880434783,2.032608696,11.01086957,-0.1005385996,0.1292639138,10.44404548,3,0.00333000333,300300,-0.9312977099,1.34351145,-0.7480916031,0.1169415292,0.1064467766,-0.1334332834,1282.051282,1441
2023/06/30 14:24:01,1.869565217,2.032608696,11.02173913,-0.1029323758,0.1244763615,10.42968282,3,0.003774003774,264970.5882,-0.9160305344,1.251908397,-0.9923664122,0.1289355322,0.1034482759,-0.1259370315,1282.783883,1441
2023/06/30 14:24:01,1.880434783,2.032608696,11.0326087,-0.1244763615,0.1292639138,10.42489527,3,0.00333000333,300300,-0.6259541985,1.404580153,-0.7328244275,0.1184407796,0.1139430285,-0.1334332834,1279.120879,1441
2023/06/30 14:24:01,1.869565217,2.032608696,11.01086957,-0.1101137044,0.1364452424,10.42968282,3,0.003774003774,264970.5882,-0.9618320611,1.480916031,-0.5496183206,0.1154422789,0.1124437781,-0.1409295352,1279.120879,1441
2023/06/30 14:24:01,1.891304348,2.032608696,11.02173913,-0.1029323758,0.1268701376,10.44643926,3,0.00333000333,300300,-0.6717557252,1.358778626,-0.8091603053,0.1124437781,0.1139430285,-0.1364317841,1283.516484,1441
2023/06/30 14:24:01,1.902173913,2.032608696,11.0326087,-0.0933572711,0.1340514662,10.45601436,3,0.00333000333,300300,-0.9618320611,1.648854962,-0.9312977099,0.1184407796,0.1064467766,-0.131934033,1280.586081,1441
2023/06/30 14:24:01,1.891304348,2.032608696,11.01086957,-0.08378216637,0.1292639138,10.42728905,3,0.00333000333,300300,-0.534351145,1.175572519,-0.8091603053,0.1124437781,0.1034482759,-0.1379310345,1279.120879,1441
2023/06/30 14:24:01,1.869565217,2.02173913,11.0326087,-0.105326152,0.1412327947,10.4727708,3,0.00333000333,300300,-1.022900763,1.282442748,-0.9618320611,0.1169415292,0.1094452774,-0.131934033,1277.655678,1441
2023/06/30 14:24:01,1.880434783,2.032608696,11.0326087,-0.1029323758,0.1268701376,10.41532017,3,0.00333000333,300300,-0.5801526718,1.541984733,-0.8702290076,0.1154422789,0.1244377811,-0.1364317841,1277.655678,1441
2023/06/30 14:24:01,1.869565217,2.032608696,11.02173913,-0.1101137044,0.1364452424,10.44404548,3,0.00333000333,300300,-0.8702290076,1.20610687,-0.9465648855,0.1094452774,0.11994003,-0.1304347826,1282.051282,1441
2023/06/30 14:24:01,1.869565217,2.043478261,11.02173913,-0.1101137044,0.1292639138,10.44165171,3,0.00333000333,300300,-0.9465648855,1.20610687,-0.8091603053,0.1154422789,0.09745127436,-0.1349325337,1284.981685,1441
2023/06/30 14:24:01,1.858695652,2.010869565,11.01086957,-0.1029323758,0.1412327947,10.44883303,3,0.00333000333,300300,-0.6717557252,1.251908397,-0.8854961832,0.1124437781,0.1094452774,-0.1274362819,1280.586081,1441
2023/06/30 14:24:01,1.858695652,2.02173913,11.02173913,-0.1196888091,0.1340514662,10.43686415,3,0.00333000333,300300,-0.7480916031,1.709923664,-0.9770992366,0.1139430285,0.1064467766,-0.1364317841,1282.051282,1441
2023/06/30 14:24:01,1.869565217,2.010869565,11,-0.09096349491,0.13165769,10.4320766,3,0.003774003774,264970.5882,-0.5190839695,1.175572519,-0.8244274809,0.1184407796,0.1004497751,-0.1379310345,1283.516484,1441
2023/06/30 14:24:01,1.902173913,2.032608696,11.05434783,-0.1149012567,0.1244763615,10.45840814,3,0.00333000333,300300,-0.7175572519,1.358778626,-0.5954198473,0.1169415292,0.1049475262,-0.1259370315,1276.190476,1441
2023/06/30 14:24:01,1.880434783,2.043478261,11.01086957,-0.1125074806,0.1268701376,10.43686415,3,0.00333000333,300300,-0.641221374,1.496183206,-0.6106870229,0.1184407796,0.1124437781,-0.1259370315,1277.655678,1441
2023/06/30 14:24:01,1.880434783,2.010869565,11.04347826,-0.1125074806,0.1292639138,10.46080192,3,0.00333000333,300300,-0.6106870229,1.572519084,-0.6717557252,0.1094452774,0.1109445277,-0.1274362819,1277.655678,1441
2023/06/30 14:24:01,1.891304348,2.010869565,11.01086957,-0.1172950329,0.1292639138,10.44643926,3,0.003774003774,264970.5882,-0.8091603053,1.358778626,-0.6870229008,0.1124437781,0.1019490255,-0.1334332834,1276.190476,1441
2023/06/30 14:24:01,1.880434783,2.02173913,10.97826087,-0.1101137044,0.1268701376,10.42968282,3,0.003774003774,264970.5882,-0.5648854962,1.20610687,-0.7022900763,0.1184407796,0.1124437781,-0.1349325337,1284.981685,1441
2023/06/30 14:24:01,1.891304348,2.032608696,11.04347826,-0.1172950329,0.13165769,10.43686415,3,0.003774003774,264970.5882,-0.7938931298,1.374045802,-0.6870229008,0.1034482759,0.09745127436,-0.1364317841,1280.586081,1441
2023/06/30 14:24:01,1.880434783,2.02173913,10.98913043,-0.09575104728,0.1340514662,10.45601436,3,0.00333000333,300300,-0.7633587786,1.572519084,-0.8549618321,0.1169415292,0.1064467766,-0.1394302849,1284.981685,1441
2023/06/30 14:24:01,1.869565217,2,11.0326087,-0.1077199282,0.1340514662,10.45601436,3,0.003774003774,264970.5882,-0.8396946565,1.297709924,-0.8702290076,0.1154422789,0.1184407796,-0.1349325337,1281.318681,1441
2023/06/30 14:24:01,1.891304348,2.043478261,10.98913043,-0.105326152,0.1292639138,10.43686415,3,0.00333000333,300300,-0.7480916031,1.282442748,-0.8396946565,0.107946027,0.1049475262,-0.1259370315,1283.516484,1441
2023/06/30 14:24:02,1.869565217,2.032608696,11.01086957,-0.1029323758,0.1340514662,10.44404548,3,0.00333000333,300300,-0.8091603053,1.236641221,-0.9465648855,0.1154422789,0.1214392804,-0.11994003,1279.85348,1442
2023/06/30 14:24:02,1.869565217,2.054347826,11.02173913,-0.1125074806,0.1460203471,10.44165171,3,0.00333000333,300300,-1.06870229,1.34351145,-0.7175572519,0.1184407796,0.107946027,-0.131934033,1282.783883,1442
2023/06/30 14:24:02,1.880434783,2.043478261,10.98913043,-0.1149012567,0.1364452424,10.43686415,3,0.00333000333,300300,-0.6717557252,1.282442748,-1.022900763,0.1154422789,0.1184407796,-0.1334332834,1285.714286,1442
2023/06/30 14:24:02,1.858695652,2.032608696,11.02173913,-0.1077199282,0.1412327947,10.42489527,3,0.00333000333,300300,-0.7480916031,1.34351145,-0.8549618321,0.1169415292,0.1034482759,-0.1349325337,1286.446886,1442
2023/06/30 14:24:02,1.869565217,2.02173913,11.02173913,-0.09575104728,0.1292639138,10.45122681,3,0.003774003774,264970.5882,-0.6106870229,1.511450382,-0.8396946565,0.1259370315,0.09895052474,-0.1289355322,1284.981685,1442
2023/06/30 14:24:02,1.869565217,2.032608696,11.02173913,-0.09575104728,0.13165769,10.45122681,3,0.00333000333,300300,-0.7633587786,1.404580153,-0.7328244275,0.1154422789,0.1094452774,-0.1304347826,1284.249084,1442
2023/06/30 14:24:02,1.858695652,2.02173913,11.01086957,-0.1125074806,0.1292639138,10.45601436,3,0.00333000333,300300,-0.534351145,1.328244275,-0.9923664122,0.1214392804,0.1064467766,-0.131934033,1281.318681,1442
2023/06/30 14:24:02,1.880434783,2.02173913,11.02173913,-0.09096349491,0.1436265709,10.44643926,3,0.003774003774,264970.5882,-0.8091603053,1.251908397,-0.9007633588,0.107946027,0.1034482759,-0.1304347826,1283.516484,1442
2023/06/30 14:24:02,1.869565217,2.032608696,11.01086957,-0.09814482346,0.1220825853,10.4320766,3,0.003774003774,264970.5882,-0.5954198473,1.175572519,-0.9770992366,0.1229385307,0.09895052474,-0.1289355322,1282.051282,1442
2023/06/30 14:24:02,1.891304348,2.032608696,11.0326087,-0.1101137044,0.1340514662,10.44165171,3,0.00333000333,300300,-0.6870229008,1.404580153,-0.9160305344,0.1154422789,0.1109445277,-0.1349325337,1279.120879,1442
2023/06/30 14:24:02,1.869565217,2.032608696,11.0326087,-0.105326152,0.1364452424,10.44404548,3,0.00333000333,300300,-0.8549618321,0.9923664122,-0.9312977099,0.1049475262,0.1064467766,-0.131934033,1277.655678,1442
2023/06/30 14:24:02,1.880434783,2.032608696,11.02173913,-0.105326152,0.1412327947,10.45362059,3,0.003774003774,264970.5882,-0.8091603053,1.221374046,-0.7175572519,0.11994003,0.1109445277,-0.1304347826,1281.318681,1442
2023/06/30 14:24:02,1.880434783,2.02173913,11.02173913,-0.1125074806,0.1244763615,10.43686415,3,0.00333000333,300300,-0.7328244275,1.34351145,-0.9312977099,0.1214392804,0.1034482759,-0.1379310345,1283.516484,1442
2023/06/30 14:24:02,1.869565217,2.010869565,11.02173913,-0.1125074806,0.1268701376,10.43686415,3,0.00333000333,300300,-0.6870229008,1.312977099,-0.8549618321,0.1214392804,0.107946027,-0.1304347826,1284.981685,1442
2023/06/30 14:24:02,1.880434783,2.02173913,11.01086957,-0.1005385996,0.13165769,10.44165171,3,0.00333000333,300300,-0.7633587786,1.282442748,-1.145038168,0.1094452774,0.1019490255,-0.1259370315,1281.318681,1442
2023/06/30 14:24:02,1.880434783,2.032608696,11.0326087,-0.09814482346,0.1292639138,10.44643926,3,0.00333000333,300300,-0.8091603053,1.282442748,-1.083969466,0.1139430285,0.1139430285,-0.1214392804,1278.388278,1442
2023/06/30 14:24:02,1.869565217,2.02173913,11.01086957,-0.1196888091,0.1412327947,10.44883303,3,0.003774003774,264970.5882,-1.06870229,1.34351145,-0.9312977099,0.1184407796,0.1109445277,-0.1229385307,1277.655678,1442
2023/06/30 14:24:02,1.858695652,2.032608696,11.01086957,-0.1101137044,0.1292639138,10.44883303,3,0.003774003774,264970.5882,-0.8244274809,1.694656489,-0.7480916031,0.1139430285,0.1049475262,-0.1214392804,1277.655678,1442
2023/06/30 14:24:02,1.869565217,2.010869565,11.01086957,-0.1077199282,0.1388390186,10.43925793,3,0.00333000333,300300,-0.6870229008,1.435114504,-0.7786259542,0.1184407796,0.1109445277,-0.11994003,1279.120879,1442
2023/06/30 14:24:02,1.880434783,2.02173913,11.0326087,-0.09814482346,0.1244763615,10.45362059,3,0.003774003774,264970.5882,-0.8854961832,1.358778626,-0.9770992366,0.1184407796,0.1064467766,-0.131934033,1278.388278,1442
2023/06/30 14:24:02,1.880434783,2.02173913,11.0326087,-0.1005385996,0.1388390186,10.43925793,3,0.00333000333,300300,-0.7633587786,1.221374046,-0.7938931298,0.1154422789,0.107946027,-0.1289355322,1276.923077,1442
2023/06/30 14:24:02,1.858695652,2.02173913,11,-0.105326152,0.1220825853,10.45122681,3,0.00333000333,300300,-0.9007633588,1.297709924,-0.7633587786,0.1124437781,0.1139430285,-0.1229385307,1281.318681,1442
2023/06/30 14:24:02,1.880434783,2.032608696,11.0326087,-0.1125074806,0.13165769,10.45362059,3,0.00333000333,300300,-0.6106870229,1.160305344,-0.9923664122,0.1139430285,0.1094452774,-0.1349325337,1279.120879,1442
2023/06/30 14:24:02,1.880434783,2.032608696,11.02173913,-0.1005385996,0.1364452424,10.43686415,3,0.003774003774,264970.5882,-0.8702290076,1.06870229,-1.022900763,0.1124437781,0.1154422789,-0.1304347826,1282.783883,1442
2023/06/30 14:24:02,1.869565217,2.032608696,11.0326087,-0.1196888091,0.1196888091,10.45601436,3,0.00333000333,300300,-0.9465648855,1.282442748,-0.9312977099,0.1139430285,0.1004497751,-0.1334332834,1279.85348,1442
2023/06/30 14:24:02,1.869565217,2.032608696,11.01086957,-0.1101137044,0.1364452424,10.44643926,3,0.003774003774,264970.5882,-0.9923664122,1.58778626,-0.9312977099,0.1154422789,0.1109445277,-0.1229385307,1278.388278,1442
2023/06/30 14:24:02,1.858695652,2.032608696,11.0326087,-0.1220825853,0.1388390186,10.45601436,3,0.00333000333,300300,-0.6870229008,1.236641221,-0.7938931298,0.1184407796,0.1094452774,-0.1424287856,1276.923077,1442
2023/06/30 14:24:02,1.891304348,2.032608696,11.01086957,-0.1029323758,0.1340514662,10.44643926,3,0.003774003774,264970.5882,-0.5190839695,1.160305344,-0.7328244275,0.1184407796,0.1064467766,-0.1289355322,1276.923077,1442
2023/06/30 14:24:02,1.869565217,2.02173913,11.02173913,-0.1029323758,0.1244763615,10.44165171,3,0.00333000333,300300,-0.4732824427,1.236641221,-0.8396946565,0.1154422789,0.1049475262,-0.1274362819,1282.051282,1442
2023/06/30 14:24:02,1.880434783,2.02173913,11.04347826,-0.105326152,0.1244763615,10.44165171,3,0.003774003774,264970.5882,-0.6259541985,1.801526718,-0.8244274809,0.1184407796,0.1049475262,-0.1259370315,1279.85348,1442
2023/06/30 14:24:02,1.869565217,2.02173913,11.02173913,-0.1101137044,0.13165769,10.44643926,3,0.00333000333,300300,-0.8244274809,1.312977099,-1.129770992,0.1154422789,0.09745127436,-0.131934033,1281.318681,1442
2023/06/30 14:24:02,3.75,3.195652174,10.95652174,-0.8665469779,-3.427887493,10.45601436,3,0.00333000333,300300,-0.1679389313,3.526717557,-25.16030534,0.1064467766,0.1064467766,-0.1274362819,1287.179487,1442
2023/06/30 14:24:02,1.858695652,1.184782609,11.05434783,-0.05984440455,-0.974266906,10.43925793,3,0.003774003774,264970.5882,0.213740458,4.198473282,-9.267175573,0.1244377811,0.1154422789,-0.1259370315,1276.923077,1442
2023/06/30 14:24:02,1.836956522,1.152173913,11.07608696,-0.1172950329,-0.9503291442,10.43925793,3,0.003774003774,264970.5882,-0.5190839695,3.053435115,-7.435114504,0.1094452774,0.1184407796,-0.1304347826,1271.794872,1442
2023/06/30 14:24:02,1.836956522,0.3260869565,11.07608696,-0.09814482346,-0.7995212448,10.44165171,3,0.003774003774,264970.5882,-1.20610687,0.03053435115,-16.73282443,0.1124437781,0.1124437781,-0.143928036,1269.59707,1442
2023/06/30 14:24:02,1.77173913,1.097826087,11.04347826,-0.1436265709,-1.146618791,10.42010772,3,0.003774003774,264970.5882,-0.7328244275,2.351145038,-13.3740458,0.1184407796,0.1064467766,-0.1514242879,1271.794872,1442
2023/06/30 14:24:02,1.847826087,-0.3260869565,11.07608696,-0.2202274087,-2.831837223,10.42489527,3,0.00333000333,300300,-0.9160305344,1.160305344,-2.809160305,0.1124437781,0.1184407796,-0.1604197901,1267.399267,1442
2023/06/30 14:24:02,1.826086957,-1.5,10.97826087,-0.04548174746,-4.241771394,9.888689408,3,0.00333000333,300300,-1.511450382,2.366412214,10.6870229,0.1109445277,0.1139430285,-0.1904047976,1279.120879,1442
2023/06/30 14:24:02,1.858695652,-1.597826087,11.08695652,0.05745062837,-4.153201676,10.26451227,3,0.00333000333,300300,-2.229007634,1.053435115,8.961832061,0.11994003,0.1184407796,-0.203898051,1268.131868,1442
2023/06/30 14:24:02,1.956521739,-3.043478261,10.90217391,-0.08617594255,-5.649311789,10.00119689,3,0.00333000333,300300,-0.8091603053,5.526717557,2.625954198,0.1229385307,0.1244377811,-0.2428785607,1284.249084,1442
2023/06/30 14:24:02,1.847826087,-3.152173913,11.09782609,-0.04787552364,-4.914422501,10.01077199,3,0.00333000333,300300,-0.5038167939,0.6259541985,-4.65648855,0.1259370315,0.1109445277,-0.2833583208,1263.736264,1442
2023/06/30 14:24:02,1.934782609,-3.326086957,10.9673913,-0.1627767804,-5.512866547,9.685218432,3,0.003774003774,264970.5882,0.07633587786,2.198473282,3.816793893,0.131934033,0.1109445277,-0.3223388306,1270.32967,1442
2023/06/30 14:24:02,1.684782609,-1.717391304,11.20652174,0.06223818073,-4.529024536,9.290245362,3,0.00333000333,300300,2.091603053,-0.7786259542,-33.9389313,0.1394302849,0.1064467766,-0.3523238381,1249.81685,1442
2023/06/30 14:24:02,2.141304348,-2.445652174,11.2826087,0.4189108318,-5.852782765,9.577498504,3,0.00333000333,300300,3.740458015,0.4427480916,12.45801527,0.1514242879,0.09595202399,-0.3748125937,1223.443223,1442
2023/06/30 14:24:02,0.7934782609,-1.054347826,11.20652174,-0.1555954518,-4.447636146,8.610412926,3,0.00333000333,300300,3.618320611,-9.984732824,-39.41984733,0.1619190405,0.09295352324,-0.3943028486,1211.721612,1442
2023/06/30 14:24:02,2.586956522,-1.402173913,11.07608696,0.06702573309,-3.961699581,7.777378815,3,0.003774003774,264970.5882,-0.5496183206,8.610687023,34.35114504,0.1664167916,0.09295352324,-0.4122938531,1236.630037,1442
2023/06/30 14:24:02,0.9347826087,-0.4782608696,10.98913043,0.06223818073,-3.427887493,9.280670257,3,0.00333000333,300300,-2.839694656,-5.877862595,-9.358778626,0.1874062969,0.09445277361,-0.4182908546,1274.725275,1442
2023/06/30 14:24:02,3.315217391,2.163043478,11.13043478,-1.036505087,0.01675643327,9.967684022,3,0.00333000333,300300,8.305343511,-14.59541985,-15.86259542,0.1964017991,0.06896551724,-0.4227886057,1254.212454,1442
2023/06/30 14:24:02,1.5,1.956521739,10.89130435,0.06941950928,-0.06463195691,8.574506284,3,0.003774003774,264970.5882,4.870229008,-9.664122137,1.328244275,0.2083958021,0.04197901049,-0.4272863568,1294.505495,1442
2023/06/30 14:24:02,2.141304348,4.402173913,10.9673913,-0.4524236984,2.037103531,8.665469779,3,0.00333000333,300300,-2.076335878,3.190839695,-4.687022901,0.1859070465,0.03148425787,-0.4242878561,1284.981685,1442
2023/06/30 14:24:03,2.369565217,5.054347826,10.80434783,1.3165769,2.834230999,7.724715739,3,0.00333000333,300300,-3.419847328,9.389312977,30,0.1874062969,0.03448275862,-0.4152923538,1310.622711,1443
2023/06/30 14:24:03,1.847826087,6.815217391,11.0326087,0.1915020946,6.858168761,8.406941951,3,0.00333000333,300300,-3.541984733,6.091603053,-0.9007633588,0.1994002999,0.01049475262,-0.4107946027,1295.238095,1443
2023/06/30 14:24:03,2.141304348,12.02173913,10.68478261,-0.6343506882,10.30999402,9.764213046,3,0.003774003774,264970.5882,-2.122137405,-2.320610687,-32.18320611,0.1949025487,-0.011994003,-0.3673163418,1361.172161,1443
2023/06/30 14:24:03,1.858695652,10.88043478,10.89130435,-0.2298025135,8.859365649,10.09694794,3,0.00333000333,300300,-2.809160305,-8.076335878,1.038167939,0.1724137931,-0.007496251874,-0.3223388306,1325.274725,1443
2023/06/30 14:24:03,1.630434783,10.43478261,10.70652174,-0.2609216038,9.012567325,10.23818073,3,0.003774003774,264970.5882,5.129770992,17.28244275,-16.77862595,0.1484257871,0.01649175412,-0.251874063,1336.263736,1443
2023/06/30 14:24:03,1.858695652,8.836956522,10.86956522,-0.1532016756,8.067025733,10.53740275,3,0.00333000333,300300,-1.770992366,-1.58778626,-15.14503817,0.1514242879,0.05547226387,-0.1964017991,1326.739927,1443
2023/06/30 14:24:03,1.923913043,8,10.93478261,-0.13165769,6.456014363,10.50149611,3,0.00333000333,300300,-0.7786259542,0.1374045802,-4.580152672,0.1619190405,0.07646176912,-0.1649175412,1323.076923,1443
2023/06/30 14:24:03,1.847826087,6.423913043,10.97826087,-0.1172950329,4.950329144,10.45122681,3,0.00333000333,300300,-1.541984733,-0.7328244275,-0.7175572519,0.1694152924,0.08245877061,-0.1469265367,1317.948718,1443
2023/06/30 14:24:03,2.043478261,2.25,11.05434783,-0.009575104728,0.2776780371,10.48713345,3,0.00333000333,300300,-3.572519084,-5.72519084,2.290076336,0.1649175412,0.08395802099,-0.1454272864,1298.901099,1443
2023/06/30 14:24:03,1.739130435,3.543478261,11,-0.1867145422,1.268701376,10.4225015,3,0.00333000333,300300,-0.9007633588,1.557251908,13.72519084,0.1739130435,0.1049475262,-0.1424287856,1294.505495,1443
2023/06/30 14:24:03,1.717391304,1.75,10.98913043,-0.2154398564,-0.026331538,10.4225015,3,0.003774003774,264970.5882,-0.9007633588,1.511450382,-0.2290076336,0.1649175412,0.07796101949,-0.1499250375,1293.040293,1443
2023/06/30 14:24:03,1.847826087,1.239130435,11.07608696,-0.07181328546,-0.5984440455,10.47037702,3,0.00333000333,300300,-0.6870229008,1.358778626,-1.038167939,0.1664167916,0.08395802099,-0.1484257871,1279.85348,1443
2023/06/30 14:24:03,1.858695652,1.934782609,11.01086957,-0.1196888091,-1.172950329,10.41292639,3,0.003774003774,264970.5882,-0.7633587786,1.465648855,-0.9312977099,0.1664167916,0.09145427286,-0.1484257871,1277.655678,1443
2023/06/30 14:24:03,1.869565217,1.97826087,11.02173913,-0.105326152,0.07660083782,10.46080192,3,0.00333000333,300300,-0.4427480916,1.297709924,-0.9160305344,0.1634182909,0.09145427286,-0.1529235382,1280.586081,1443
2023/06/30 14:24:03,1.608695652,1.576086957,11.01086957,-0.2082585278,-0.03111909037,10.44165171,3,0.003774003774,264970.5882,-0.9160305344,1.374045802,-13.35877863,0.1739130435,0.08995502249,-0.1529235382,1278.388278,1443
2023/06/30 14:24:03,1.923913043,2.065217391,11.0326087,-0.04069419509,0.3255535607,10.4225015,3,0.00333000333,300300,-0.8244274809,1.34351145,-4.610687023,0.1649175412,0.08245877061,-0.1574212894,1277.655678,1443
2023/06/30 14:24:03,1.869565217,2.010869565,11,-0.08378216637,0.1819269898,10.43447038,3,0.003774003774,264970.5882,-0.7633587786,1.34351145,-0.6259541985,0.1664167916,0.08845577211,-0.1529235382,1282.051282,1443
2023/06/30 14:24:03,1.880434783,2.010869565,11.01086957,-0.1029323758,0.1172950329,10.44883303,3,0.003774003774,264970.5882,-0.7328244275,1.06870229,-0.8549618321,0.1649175412,0.08245877061,-0.1544227886,1279.120879,1443
2023/06/30 14:24:03,1.891304348,2.02173913,11.0326087,-0.1125074806,0.1125074806,10.42010772,3,0.00333000333,300300,-0.5801526718,1.328244275,-0.7938931298,0.1664167916,0.08395802099,-0.1469265367,1278.388278,1443
2023/06/30 14:24:03,1.880434783,2.010869565,11.01086957,-0.1172950329,0.1077199282,10.42968282,3,0.00333000333,300300,-1.007633588,1.541984733,-0.9770992366,0.1634182909,0.08095952024,-0.1499250375,1278.388278,1443
2023/06/30 14:24:03,1.869565217,1.989130435,11.02173913,-0.1220825853,0.09814482346,10.44404548,3,0.00333000333,300300,-0.8549618321,1.404580153,-0.6870229008,0.1739130435,0.08995502249,-0.1529235382,1282.051282,1443
2023/06/30 14:24:03,1.891304348,1.989130435,11.0326087,-0.1101137044,0.08378216637,10.43686415,3,0.00333000333,300300,-0.9465648855,1.572519084,-0.9160305344,0.1694152924,0.07796101949,-0.155922039,1279.120879,1443
2023/06/30 14:24:03,1.858695652,1.967391304,11.01086957,-0.105326152,0.08617594255,10.44165171,3,0.00333000333,300300,-0.9312977099,1.465648855,-1.007633588,0.1724137931,0.07646176912,-0.1604197901,1278.388278,1443
2023/06/30 14:24:03,1.869565217,1.989130435,11.01086957,-0.1220825853,0.08138839019,10.44404548,3,0.00333000333,300300,-0.641221374,1.450381679,-0.9312977099,0.1574212894,0.08095952024,-0.1544227886,1278.388278,1443
2023/06/30 14:24:03,1.891304348,1.989130435,11.0326087,-0.1196888091,0.09575104728,10.43447038,3,0.00333000333,300300,-0.641221374,1.251908397,-0.7328244275,0.1649175412,0.08245877061,-0.1469265367,1277.655678,1443
2023/06/30 14:24:03,1.869565217,2,11.01086957,-0.1029323758,0.1077199282,10.43447038,3,0.003774003774,264970.5882,-0.5496183206,1.496183206,-0.8549618321,0.1649175412,0.08245877061,-0.155922039,1277.655678,1443
2023/06/30 14:24:03,1.880434783,2.032608696,11.01086957,-0.1125074806,0.105326152,10.43686415,3,0.00333000333,300300,-0.6564885496,1.603053435,-0.7938931298,0.167916042,0.07946026987,-0.1499250375,1278.388278,1443
2023/06/30 14:24:03,1.858695652,2.010869565,11.02173913,-0.1005385996,0.09575104728,10.43686415,3,0.00333000333,300300,-0.7786259542,1.511450382,-1.190839695,0.167916042,0.08245877061,-0.1589205397,1281.318681,1443
2023/06/30 14:24:03,1.869565217,2.02173913,11.02173913,-0.1029323758,0.1005385996,10.45122681,3,0.00333000333,300300,-0.4580152672,1.465648855,-0.8396946565,0.1634182909,0.08995502249,-0.1529235382,1282.783883,1443
2023/06/30 14:24:03,1.880434783,1.989130435,11.0326087,-0.1125074806,0.1149012567,10.4320766,3,0.003774003774,264970.5882,-0.8549618321,1.282442748,-1.007633588,0.167916042,0.08845577211,-0.1484257871,1279.85348,1443
2023/06/30 14:24:03,1.858695652,1.989130435,11.01086957,-0.1101137044,0.08856971873,10.44404548,3,0.003774003774,264970.5882,-0.8244274809,1.297709924,-0.9160305344,0.1814092954,0.08695652174,-0.1529235382,1279.120879,1443
2023/06/30 14:24:03,1.858695652,1.97826087,11.0326087,-0.1077199282,0.08856971873,10.44165171,3,0.00333000333,300300,-0.7480916031,1.160305344,-0.8091603053,0.1709145427,0.08995502249,-0.1514242879,1278.388278,1443
2023/06/30 14:24:03,1.858695652,1.967391304,11.02173913,-0.09096349491,0.08378216637,10.43925793,3,0.00333000333,300300,-0.8396946565,1.374045802,-0.9618320611,0.1634182909,0.07796101949,-0.1589205397,1281.318681,1443
2023/06/30 14:24:03,1.891304348,2,11.02173913,-0.1149012567,0.09096349491,10.43447038,3,0.00333000333,300300,-0.4122137405,1.58778626,-0.8244274809,0.1709145427,0.07646176912,-0.1544227886,1282.783883,1443
2023/06/30 14:24:03,1.880434783,2,11.04347826,-0.1077199282,0.1005385996,10.45122681,3,0.00333000333,300300,-0.6106870229,1.236641221,-0.6106870229,0.1634182909,0.08395802099,-0.1454272864,1279.85348,1443
2023/06/30 14:24:03,1.880434783,2,11.04347826,-0.1125074806,0.1005385996,10.42489527,3,0.00333000333,300300,-0.8091603053,1.282442748,-0.5954198473,0.1664167916,0.07646176912,-0.1529235382,1277.655678,1443
2023/06/30 14:24:03,1.869565217,2,11.01086957,-0.1101137044,0.1220825853,10.44404548,3,0.00333000333,300300,-0.5190839695,1.328244275,-0.9007633588,0.167916042,0.09295352324,-0.1499250375,1277.655678,1443
2023/06/30 14:24:03,1.880434783,1.989130435,11.02173913,-0.105326152,0.1077199282,10.42489527,3,0.00333000333,300300,-0.8549618321,1.236641221,-0.6564885496,0.1739130435,0.08395802099,-0.1499250375,1282.051282,1443
2023/06/30 14:24:03,1.880434783,2,11.02173913,-0.1125074806,0.09814482346,10.43447038,3,0.00333000333,300300,-0.7175572519,1.389312977,-0.7480916031,0.1604197901,0.08545727136,-0.1544227886,1283.516484,1443
2023/06/30 14:24:03,1.869565217,2,11.0326087,-0.1101137044,0.09575104728,10.44883303,3,0.00333000333,300300,-0.5801526718,1.221374046,-0.8396946565,0.1634182909,0.08845577211,-0.1454272864,1279.85348,1443
2023/06/30 14:24:03,1.880434783,1.97826087,11.0326087,-0.09575104728,0.0933572711,10.44883303,3,0.00333000333,300300,-0.9770992366,1.34351145,-0.7786259542,0.167916042,0.09145427286,-0.1484257871,1278.388278,1443
2023/06/30 14:24:03,1.858695652,2,11.01086957,-0.1101137044,0.09096349491,10.43447038,3,0.00333000333,300300,-0.534351145,1.236641221,-1.022900763,0.167916042,0.07196401799,-0.1499250375,1278.388278,1443
2023/06/30 14:24:03,1.880434783,1.97826087,11.04347826,-0.1149012567,0.09096349491,10.4320766,3,0.00333000333,300300,-0.8854961832,1.633587786,-0.9312977099,0.1724137931,0.09895052474,-0.1499250375,1276.923077,1443
2023/06/30 14:24:03,1.869565217,2.010869565,11.0326087,-0.1077199282,0.1077199282,10.44165171,3,0.00333000333,300300,-0.5801526718,1.267175573,-0.9465648855,0.1634182909,0.08245877061,-0.1544227886,1276.923077,1443
2023/06/30 14:24:03,1.880434783,2,11.0326087,-0.1244763615,0.1005385996,10.45362059,3,0.00333000333,300300,-0.6870229008,1.053435115,-1.145038168,0.1649175412,0.07646176912,-0.1499250375,1276.923077,1443
2023/06/30 14:24:03,1.880434783,2,11.0326087,-0.1149012567,0.1077199282,10.44883303,3,0.00333000333,300300,-0.5648854962,1.114503817,-0.7633587786,0.1709145427,0.08095952024,-0.1469265367,1276.923077,1443
2023/06/30 14:24:03,1.880434783,2.010869565,11,-0.1172950329,0.1029323758,10.45362059,3,0.00333000333,300300,-0.8244274809,1.328244275,-0.8854961832,0.1574212894,0.08545727136,-0.1604197901,1281.318681,1443
2023/06/30 14:24:03,1.891304348,1.989130435,11.01086957,-0.1125074806,0.09814482346,10.43686415,3,0.00333000333,300300,-0.7022900763,1.282442748,-0.7633587786,0.1604197901,0.08245877061,-0.1529235382,1279.120879,1443
2023/06/30 14:24:03,1.880434783,1.989130435,11.02173913,-0.1149012567,0.09814482346,10.44165171,3,0.00333000333,300300,-0.6870229008,1.358778626,-0.7175572519,0.1709145427,0.07496251874,-0.1514242879,1282.051282,1443
2023/06/30 14:24:03,1.880434783,1.989130435,11.0326087,-0.1172950329,0.0933572711,10.44165171,3,0.00333000333,300300,-0.6106870229,1.374045802,-0.6870229008,0.1649175412,0.08845577211,-0.155922039,1279.85348,1443
2023/06/30 14:24:04,1.880434783,1.989130435,11.01086957,-0.1101137044,0.1029323758,10.43686415,3,0.00333000333,300300,-0.5190839695,1.404580153,-1.038167939,0.1694152924,0.07046476762,-0.1619190405,1279.120879,1444
2023/06/30 14:24:04,1.880434783,1.97826087,11,-0.1196888091,0.1005385996,10.44165171,3,0.00333000333,300300,-0.9007633588,1.435114504,-1.129770992,0.1619190405,0.07346326837,-0.1544227886,1282.051282,1444
2023/06/30 14:24:04,1.902173913,2,11.01086957,-0.1101137044,0.1029323758,10.44404548,3,0.003774003774,264970.5882,-0.8091603053,1.511450382,-0.8396946565,0.1604197901,0.07646176912,-0.1574212894,1279.85348,1444
2023/06/30 14:24:04,1.891304348,2.010869565,11.01086957,-0.1268701376,0.09814482346,10.43925793,3,0.003774003774,264970.5882,-0.641221374,1.496183206,-0.8549618321,0.1619190405,0.07796101949,-0.1574212894,1279.120879,1444
2023/06/30 14:24:04,1.869565217,2.010869565,11.02173913,-0.1172950329,0.09814482346,10.43925793,3,0.003774003774,264970.5882,-0.6717557252,1.633587786,-0.8702290076,0.1784107946,0.07196401799,-0.155922039,1282.051282,1444
2023/06/30 14:24:04,1.869565217,1.967391304,11.0326087,-0.1149012567,0.0933572711,10.43447038,3,0.00333000333,300300,-0.9923664122,1.267175573,-0.9923664122,0.1649175412,0.07946026987,-0.1574212894,1279.120879,1444
2023/06/30 14:24:04,1.858695652,2,11.0326087,-0.1244763615,0.09814482346,10.44883303,3,0.003774003774,264970.5882,-0.5190839695,1.328244275,-0.8549618321,0.1694152924,0.08995502249,-0.1484257871,1278.388278,1444
2023/06/30 14:24:04,1.869565217,1.989130435,11.04347826,-0.1077199282,0.09575104728,10.42968282,3,0.00333000333,300300,-0.8549618321,1.709923664,-0.9923664122,0.1634182909,0.08845577211,-0.1454272864,1276.923077,1444
2023/06/30 14:24:04,1.891304348,2.010869565,11.0326087,-0.1149012567,0.09575104728,10.44883303,3,0.00333000333,300300,-0.8396946565,1.328244275,-1.06870229,0.1664167916,0.07946026987,-0.1469265367,1277.655678,1444
2023/06/30 14:24:04,1.869565217,2,11.02173913,-0.1101137044,0.08378216637,10.44165171,3,0.00333000333,300300,-0.9160305344,1.038167939,-0.8549618321,0.1589205397,0.08095952024,-0.1589205397,1281.318681,1444
2023/06/30 14:24:04,1.847826087,1.989130435,11.0326087,-0.1125074806,0.09814482346,10.45362059,3,0.003774003774,264970.5882,-0.7175572519,1.328244275,-0.7480916031,0.1709145427,0.08095952024,-0.1529235382,1279.120879,1444
2023/06/30 14:24:04,1.880434783,1.989130435,11.02173913,-0.1101137044,0.105326152,10.43686415,3,0.00333000333,300300,-0.641221374,1.374045802,-0.7175572519,0.1604197901,0.07646176912,-0.1514242879,1282.051282,1444
2023/06/30 14:24:04,1.858695652,2.010869565,11.02173913,-0.1149012567,0.105326152,10.43447038,3,0.00333000333,300300,-0.8091603053,1.022900763,-0.8549618321,0.167916042,0.07796101949,-0.1484257871,1284.249084,1444
2023/06/30 14:24:04,1.869565217,2,11.0326087,-0.1149012567,0.09575104728,10.43925793,3,0.00333000333,300300,-0.9923664122,1.175572519,-0.9160305344,0.1649175412,0.07196401799,-0.1499250375,1280.586081,1444
2023/06/30 14:24:04,1.858695652,2,11.02173913,-0.1268701376,0.09814482346,10.43686415,3,0.00333000333,300300,-0.5496183206,1.389312977,-0.9465648855,0.1574212894,0.07946026987,-0.1484257871,1282.783883,1444
2023/06/30 14:24:04,1.869565217,2.010869565,11.02173913,-0.1172950329,0.08856971873,10.43447038,3,0.00333000333,300300,-1.007633588,1.221374046,-0.9618320611,0.1649175412,0.08395802099,-0.155922039,1284.249084,1444
2023/06/30 14:24:04,1.880434783,1.97826087,11.02173913,-0.1029323758,0.1029323758,10.43686415,3,0.003774003774,264970.5882,-0.7175572519,1.374045802,-0.8091603053,0.1664167916,0.08095952024,-0.1589205397,1284.981685,1444
2023/06/30 14:24:04,1.880434783,1.989130435,11.0326087,-0.1149012567,0.09575104728,10.44883303,3,0.003774003774,264970.5882,-1.083969466,1.297709924,-0.8396946565,0.1709145427,0.08245877061,-0.1514242879,1280.586081,1444
2023/06/30 14:24:04,1.869565217,1.989130435,11,-0.1149012567,0.08617594255,10.44883303,3,0.00333000333,300300,-0.5496183206,1.511450382,-0.641221374,0.1694152924,0.08245877061,-0.1529235382,1283.516484,1444
2023/06/30 14:24:04,1.880434783,2,11,-0.1101137044,0.1101137044,10.42728905,3,0.00333000333,300300,-0.8396946565,1.160305344,-0.7328244275,0.167916042,0.08545727136,-0.1499250375,1284.249084,1444
2023/06/30 14:24:04,1.858695652,2.010869565,11.02173913,-0.1077199282,0.1196888091,10.44404548,3,0.003774003774,264970.5882,-0.6564885496,1.251908397,-0.7175572519,0.1694152924,0.08545727136,-0.143928036,1284.249084,1444
2023/06/30 14:24:04,1.869565217,1.989130435,10.97826087,-0.02872531418,0.1436265709,10.42968282,3,0.003774003774,264970.5882,-0.427480916,1.709923664,-0.641221374,0.1649175412,0.07796101949,-0.1454272864,1290.10989,1444
2023/06/30 14:24:04,2.086956522,2.380434783,11.01086957,0.03111909037,0.3973668462,10.44165171,3,0.00333000333,300300,-0.8854961832,0.9618320611,5.969465649,0.1664167916,0.07496251874,-0.1544227886,1284.249084,1444
2023/06/30 14:24:04,1.913043478,2.847826087,10.98913043,-0.04069419509,0.6271693597,10.45122681,3,0.00333000333,300300,-0.320610687,1.679389313,-1.328244275,0.1724137931,0.08395802099,-0.1544227886,1286.446886,1444
2023/06/30 14:24:04,1.880434783,3.597826087,11,-0.1149012567,1.836026332,10.46080192,3,0.003774003774,264970.5882,-1.007633588,1.053435115,0.2290076336,0.155922039,0.07946026987,-0.1619190405,1286.446886,1444
2023/06/30 14:24:04,1.934782609,3.956521739,10.95652174,-0.1029323758,2.427289048,10.43925793,3,0.00333000333,300300,-0.1526717557,2.305343511,4.442748092,0.1634182909,0.07196401799,-0.1604197901,1291.575092,1444
2023/06/30 14:24:04,1.782608696,5.217391304,10.9673913,-0.09814482346,3.478156792,10.47755835,3,0.00333000333,300300,0.2442748092,4.244274809,2.488549618,0.155922039,0.05697151424,-0.1859070465,1290.842491,1444
2023/06/30 14:24:04,1.97826087,5.47826087,10.98913043,-0.05026929982,4.201077199,10.42489527,3,0.003774003774,264970.5882,-0.9923664122,-1.679389313,-1.282442748,0.1574212894,0.06146926537,-0.2008995502,1290.842491,1444
2023/06/30 14:24:04,1.673913043,6.304347826,10.88043478,-0.1340514662,5.187312986,10.53500898,3,0.00333000333,300300,-0.641221374,-0.4427480916,-4.381679389,0.1469265367,0.0299850075,-0.2353823088,1301.098901,1444
2023/06/30 14:24:04,1.923913043,7.315217391,10.77173913,-0.07181328546,5.757031718,10.60921604,3,0.004218004218,237078.9474,0.6870229008,5.832061069,-3.877862595,0.1514242879,0.008995502249,-0.2713643178,1312.087912,1444
2023/06/30 14:24:04,1.695652174,7.282608696,11.19565217,0.06463195691,6.192698983,10.2214243,3,0.003774003774,264970.5882,-0.7480916031,4.870229008,2.045801527,0.1619190405,0.001499250375,-0.3223388306,1278.388278,1444
2023/06/30 14:24:04,0.8152173913,6.673913043,11.26086957,-0.1532016756,6.611609814,10.14003591,3,0.003774003774,264970.5882,-0.6717557252,-6.198473282,-6.763358779,0.1859070465,-0.007496251874,-0.35982009,1224.908425,1444
2023/06/30 14:24:04,1.880434783,5.945652174,10.95652174,0.3064033513,5.790544584,9.639736685,3,0.00333000333,300300,-0.4427480916,-1.282442748,-5.679389313,0.1949025487,0.01049475262,-0.3988005997,1230.03663,1444
2023/06/30 14:24:04,1.739130435,6.815217391,11.06521739,-0.342309994,5.000598444,9.740275284,3,0.003774003774,264970.5882,3.603053435,3.893129771,-41.52671756,0.1949025487,0.02698650675,-0.4122938531,1234.432234,1444
2023/06/30 14:24:04,1.673913043,4.641304348,10.57608696,0.4189108318,3.152603232,10.14721724,3,0.003774003774,264970.5882,-0.9312977099,4.717557252,15.29770992,0.1934032984,0.03448275862,-0.4332833583,1121.611722,1444
2023/06/30 14:24:04,1.717391304,3.793478261,10.93478261,-0.09575104728,2.712148414,10.0801915,3,0.003774003774,264970.5882,-1.480916031,-3.694656489,12.82442748,0.1814092954,0.04347826087,-0.4287856072,1191.941392,1444
2023/06/30 14:24:04,2.130434783,2.72826087,11.33695652,-0.5242369838,1.682824656,9.747456613,3,0.00333000333,300300,1.038167939,-11.03816794,-12.80916031,0.1979010495,0.05097451274,-0.4332833583,1189.010989,1444
2023/06/30 14:24:04,1.739130435,1.141304348,11.39130435,0.4428485937,0.3207660084,9.263913824,3,0.00333000333,300300,-5.541984733,8.65648855,39.92366412,0.191904048,0.06596701649,-0.4377811094,1166.300366,1444
2023/06/30 14:24:04,1.010869565,2.217391304,11.33695652,0.08138839019,-0.2609216038,9.73070018,3,0.00333000333,300300,-0.6717557252,4.259541985,-42.24427481,0.1979010495,0.07946026987,-0.4287856072,1179.487179,1444
2023/06/30 14:24:04,2.467391304,-0.2173913043,10.60869565,0.2968282466,-1.864751646,9.036505087,3,0.00333000333,300300,6.442748092,-2.625954198,28.58015267,0.1769115442,0.08695652174,-0.4062968516,1235.897436,1444
2023/06/30 14:24:04,0.5434782609,2.684782609,11.18478261,-0.6128067026,-1.137043686,9.63016158,3,0.003774003774,264970.5882,-2.106870229,9.526717557,-67.28244275,0.1604197901,0.09895052474,-0.4032983508,1226.373626,1444
2023/06/30 14:24:04,2.869565217,-1.5,10.84782609,0.2082585278,-3.104727708,10.08976661,3,0.00333000333,300300,-2.259541985,5.923664122,0.5496183206,0.1604197901,0.1094452774,-0.3793103448,1320.879121,1444
2023/06/30 14:24:04,2.326086957,-4.195652174,11.56521739,-0.579293836,-5.321364452,10.08737283,3,0.002886002886,346500,-3.145038168,-7.633587786,6.977099237,0.1589205397,0.09895052474,-0.3628185907,1331.868132,1444
2023/06/30 14:24:04,1.173913043,-2.52173913,11.11956522,-0.1412327947,-5.950927588,9.757031718,3,0.00333000333,300300,0.427480916,4.854961832,3.129770992,0.131934033,0.1304347826,-0.311844078,1350.915751,1444
2023/06/30 14:24:04,2.304347826,-3.956521739,11.11956522,-0.2776780371,-4.904847397,10.24536206,3,0.003774003774,264970.5882,0.1679389313,-1.480916031,-13.22137405,0.1274362819,0.1244377811,-0.2713643178,1312.087912,1444
2023/06/30 14:24:04,2.260869565,-2.097826087,10.88043478,-0.02872531418,-6.094554159,10.29802513,3,0.00333000333,300300,1.511450382,4.41221374,11.00763359,0.1184407796,0.1169415292,-0.2308845577,1319.413919,1444
2023/06/30 14:24:04,1.72826087,-3.467391304,10.98913043,-0.2872531418,-6.154398564,10.64751646,3,0.003774003774,264970.5882,-0.03053435115,1.786259542,0.5954198473,0.1184407796,0.1184407796,-0.179910045,1282.783883,1444
2023/06/30 14:24:04,1.989130435,-1.97826087,11.16304348,-0.1532016756,-4.315978456,10.43447038,3,0.00333000333,300300,-0.04580152672,1.557251908,-1.038167939,0.1169415292,0.1139430285,-0.1454272864,1257.875458,1444
2023/06/30 14:24:04,1.967391304,-1.902173913,11.04347826,-0.1388390186,-4.356672651,10.44404548,3,0.004218004218,237078.9474,-0.9923664122,0.2748091603,0.09160305344,0.1259370315,0.1064467766,-0.1124437781,1257.142857,1444
2023/06/30 14:24:04,1.913043478,-1.304347826,11.07608696,-0.08856971873,-4.629563136,10.36744464,3,0.003774003774,264970.5882,-0.9465648855,1.34351145,0.09160305344,0.1229385307,0.1004497751,-0.1019490255,1257.875458,1444
2023/06/30 14:24:04,1.869565217,1.663043478,11.0326087,-0.1292639138,-3.099940156,10.43447038,3,0.00333000333,300300,-0.8396946565,1.297709924,-0.641221374,0.1184407796,0.09445277361,-0.09895052474,1265.934066,1444
2023/06/30 14:24:05,1.869565217,2.032608696,11.05434783,-0.1172950329,0.1292639138,10.4320766,3,0.00333000333,300300,-0.7786259542,1.419847328,-0.8244274809,0.1214392804,0.09745127436,-0.09595202399,1267.399267,1445
2023/06/30 14:24:05,1.836956522,2,11.0326087,-0.1196888091,0.1196888091,10.46558947,3,0.003774003774,264970.5882,-0.8549618321,1.72519084,-2.93129771,0.1289355322,0.09295352324,-0.09745127436,1273.260073,1445
2023/06/30 14:24:05,1.880434783,2.043478261,11.02173913,-0.07420706164,0.1603830042,10.42728905,3,0.00333000333,300300,-0.8244274809,1.34351145,-1.221374046,0.1169415292,0.1034482759,-0.09745127436,1280.586081,1445
2023/06/30 14:24:05,1.880434783,2.032608696,11.02173913,-0.105326152,0.1460203471,10.4320766,3,0.00333000333,300300,-0.8549618321,1.633587786,-0.6870229008,0.1229385307,0.08995502249,-0.1004497751,1283.516484,1445
2023/06/30 14:24:05,1.891304348,2.043478261,11.02173913,-0.1220825853,0.1484141233,10.44643926,3,0.003774003774,264970.5882,-0.4732824427,1.34351145,-0.7480916031,0.1304347826,0.1139430285,-0.09445277361,1284.249084,1445
2023/06/30 14:24:05,1.858695652,2.02173913,11.01086957,-0.105326152,0.1268701376,10.43686415,3,0.00333000333,300300,-0.8549618321,1.374045802,-0.7480916031,0.1154422789,0.09745127436,-0.09595202399,1280.586081,1445
2023/06/30 14:24:05,1.869565217,2.032608696,11.0326087,-0.1196888091,0.1388390186,10.45122681,3,0.00333000333,300300,-0.9465648855,1.480916031,-0.9923664122,0.1169415292,0.1034482759,-0.09145427286,1279.120879,1445
2023/06/30 14:24:05,1.869565217,2.032608696,11,-0.1029323758,0.1340514662,10.43447038,3,0.003774003774,264970.5882,-0.7786259542,1.450381679,-0.9007633588,0.1229385307,0.09595202399,-0.09745127436,1282.783883,1445
2023/06/30 14:24:05,1.869565217,2.02173913,11.01086957,-0.1125074806,0.1292639138,10.42968282,3,0.00333000333,300300,-0.7938931298,1.511450382,-0.9770992366,0.1214392804,0.09595202399,-0.09595202399,1281.318681,1445
2023/06/30 14:24:05,1.880434783,2.02173913,11.04347826,-0.1077199282,0.1196888091,10.43925793,3,0.00333000333,300300,-0.7480916031,1.328244275,-0.8854961832,0.1214392804,0.09445277361,-0.09145427286,1278.388278,1445
2023/06/30 14:24:05,1.869565217,2.032608696,11.01086957,-0.09814482346,0.13165769,10.44165171,3,0.003774003774,264970.5882,-0.7175572519,1.007633588,-1.06870229,0.1289355322,0.1004497751,-0.09295352324,1276.923077,1445
2023/06/30 14:24:05,1.880434783,2.043478261,11.02173913,-0.09575104728,0.1268701376,10.45122681,3,0.00333000333,300300,-0.7786259542,1.20610687,-0.9465648855,0.1289355322,0.1109445277,-0.1034482759,1281.318681,1445
2023/06/30 14:24:05,1.902173913,2.032608696,11.0326087,-0.1125074806,0.1388390186,10.44404548,3,0.00333000333,300300,-0.8091603053,1.038167939,-0.7938931298,0.1259370315,0.1019490255,-0.08545727136,1279.85348,1445
2023/06/30 14:24:05,1.869565217,2.02173913,11.01086957,-0.1005385996,0.1292639138,10.44404548,3,0.00333000333,300300,-0.6259541985,1.236641221,-0.8549618321,0.1169415292,0.1064467766,-0.09145427286,1279.120879,1445
2023/06/30 14:24:05,1.880434783,2.02173913,11.0326087,-0.105326152,0.1460203471,10.43686415,3,0.003774003774,264970.5882,-0.7480916031,1.435114504,-0.6564885496,0.1139430285,0.1049475262,-0.09445277361,1277.655678,1445
2023/06/30 14:24:05,1.869565217,2.02173913,11,-0.1077199282,0.1412327947,10.45122681,3,0.00333000333,300300,-0.8396946565,1.282442748,-0.8702290076,0.11994003,0.1049475262,-0.09595202399,1281.318681,1445
2023/06/30 14:24:05,1.858695652,2.010869565,11.02173913,-0.1005385996,0.1149012567,10.44165171,3,0.003774003774,264970.5882,-0.8396946565,1.374045802,-0.7480916031,0.1154422789,0.1034482759,-0.09445277361,1282.783883,1445
2023/06/30 14:24:05,1.869565217,2.043478261,11.05434783,-0.105326152,0.1292639138,10.4320766,3,0.003774003774,264970.5882,-0.5954198473,1.557251908,-0.8091603053,0.1229385307,0.1004497751,-0.09745127436,1275.457875,1445
2023/06/30 14:24:05,1.891304348,2.02173913,11.02173913,-0.0933572711,0.1340514662,10.43925793,3,0.00333000333,300300,-0.8702290076,1.190839695,-0.9007633588,0.1154422789,0.09745127436,-0.09595202399,1281.318681,1445
2023/06/30 14:24:05,1.902173913,2.032608696,11.0326087,-0.1101137044,0.1244763615,10.45840814,3,0.00333000333,300300,-0.7786259542,1.404580153,-1.038167939,0.1259370315,0.09895052474,-0.09595202399,1279.120879,1445
2023/06/30 14:24:05,1.891304348,2.032608696,11.01086957,-0.1220825853,0.1532016756,10.43925793,3,0.00333000333,300300,-0.8091603053,1.236641221,-0.7022900763,0.1244377811,0.09745127436,-0.08995502249,1278.388278,1445
2023/06/30 14:24:05,1.869565217,2.032608696,11.02173913,-0.09814482346,0.13165769,10.45840814,3,0.00333000333,300300,-0.5190839695,1.221374046,-0.7328244275,0.1229385307,0.09445277361,-0.09445277361,1280.586081,1445
2023/06/30 14:24:05,1.858695652,2.032608696,11.01086957,-0.1077199282,0.1460203471,10.4320766,3,0.00333000333,300300,-0.5954198473,1.312977099,-0.8549618321,0.1244377811,0.1004497751,-0.09745127436,1279.120879,1445
2023/06/30 14:24:05,1.880434783,2.032608696,11.01086957,-0.1005385996,0.1412327947,10.42968282,3,0.003774003774,264970.5882,-0.5954198473,1.297709924,-0.9160305344,0.1259370315,0.1124437781,-0.09445277361,1279.85348,1445
2023/06/30 14:24:05,1.880434783,2.054347826,11.02173913,-0.09814482346,0.1244763615,10.44404548,3,0.00333000333,300300,-0.8396946565,1.175572519,-0.7938931298,0.11994003,0.09595202399,-0.09745127436,1282.783883,1445
2023/06/30 14:24:05,1.880434783,2.02173913,11.0326087,-0.1005385996,0.13165769,10.44643926,3,0.004218004218,237078.9474,-0.7175572519,1.34351145,-0.7633587786,0.1244377811,0.09745127436,-0.09745127436,1279.120879,1445
2023/06/30 14:24:05,1.880434783,2.032608696,11.02173913,-0.105326152,0.1268701376,10.43447038,3,0.00333000333,300300,-0.9312977099,1.236641221,-0.6259541985,0.1289355322,0.08695652174,-0.09745127436,1281.318681,1445
2023/06/30 14:24:05,1.880434783,2.02173913,11.0326087,-0.1077199282,0.1412327947,10.44643926,3,0.003774003774,264970.5882,-0.7175572519,1.541984733,-0.5954198473,0.1214392804,0.09895052474,-0.09445277361,1279.85348,1445
2023/06/30 14:24:05,1.869565217,2.032608696,11.02173913,-0.09575104728,0.13165769,10.44643926,3,0.00333000333,300300,-1.038167939,1.404580153,-0.9465648855,0.1214392804,0.1019490255,-0.1004497751,1282.783883,1445
2023/06/30 14:24:05,1.880434783,2.02173913,11.02173913,-0.1077199282,0.1364452424,10.43686415,3,0.00333000333,300300,-0.6717557252,1.526717557,-0.7786259542,0.1184407796,0.09145427286,-0.09295352324,1284.981685,1445
2023/06/30 14:24:05,1.869565217,2.032608696,11,-0.1005385996,0.1388390186,10.45122681,3,0.00333000333,300300,-0.6564885496,1.20610687,-0.9007633588,0.1289355322,0.09745127436,-0.1019490255,1284.981685,1445
2023/06/30 14:24:05,1.869565217,2.032608696,11.01086957,-0.1125074806,0.1292639138,10.44165171,3,0.003774003774,264970.5882,-0.8854961832,1.465648855,-1.145038168,0.11994003,0.1004497751,-0.09745127436,1279.85348,1445
2023/06/30 14:24:05,1.880434783,2.043478261,11.0326087,-0.1172950329,0.1436265709,10.4320766,3,0.00333000333,300300,-0.6717557252,1.297709924,-0.8244274809,0.1259370315,0.09295352324,-0.09595202399,1278.388278,1445
2023/06/30 14:24:05,1.880434783,2.032608696,11.02173913,-0.1029323758,0.1292639138,10.4320766,3,0.00333000333,300300,-0.5190839695,1.221374046,-0.9160305344,0.1244377811,0.107946027,-0.09895052474,1282.783883,1445
2023/06/30 14:24:05,1.869565217,2.010869565,11.02173913,-0.0933572711,0.1340514662,10.43925793,3,0.003774003774,264970.5882,-0.7480916031,1.389312977,-1.083969466,0.1229385307,0.09895052474,-0.09445277361,1284.981685,1445
2023/06/30 14:24:05,1.880434783,2.032608696,11.01086957,-0.1005385996,0.1340514662,10.42968282,3,0.00333000333,300300,-0.8854961832,1.20610687,-0.9465648855,0.1214392804,0.107946027,-0.09745127436,1280.586081,1445
2023/06/30 14:24:05,1.902173913,2.032608696,11.0326087,-0.09575104728,0.1244763615,10.44883303,3,0.00333000333,300300,-0.7633587786,1.190839695,-0.7328244275,0.1184407796,0.09295352324,-0.1019490255,1278.388278,1445
2023/06/30 14:24:05,1.869565217,2.02173913,11.02173913,-0.1149012567,0.1340514662,10.43447038,3,0.00333000333,300300,-0.7328244275,1.282442748,-1.06870229,0.1184407796,0.1049475262,-0.1049475262,1281.318681,1445
2023/06/30 14:24:05,1.880434783,2.043478261,11.02173913,-0.1005385996,0.1388390186,10.43447038,3,0.00333000333,300300,-0.6106870229,1.679389313,-0.8244274809,0.1169415292,0.09895052474,-0.09745127436,1283.516484,1445
2023/06/30 14:24:05,1.880434783,2.043478261,11.0326087,-0.1101137044,0.13165769,10.44883303,3,0.00333000333,300300,-0.7633587786,1.511450382,-0.7175572519,0.1184407796,0.08995502249,-0.09595202399,1280.586081,1445
2023/06/30 14:24:05,1.891304348,2.02173913,11.02173913,-0.105326152,0.1388390186,10.46080192,3,0.003774003774,264970.5882,-0.5038167939,1.358778626,-0.8702290076,0.131934033,0.09745127436,-0.1004497751,1283.516484,1445
2023/06/30 14:24:05,1.880434783,2.032608696,11.0326087,-0.1077199282,0.1460203471,10.44165171,3,0.00333000333,300300,-0.6564885496,1.572519084,-0.8702290076,0.1259370315,0.1019490255,-0.09445277361,1279.85348,1445
2023/06/30 14:24:05,1.858695652,2.02173913,11.0326087,-0.1029323758,0.1340514662,10.44165171,3,0.00333000333,300300,-0.8702290076,1.328244275,-0.9618320611,0.131934033,0.09745127436,-0.09595202399,1277.655678,1445
2023/06/30 14:24:05,1.858695652,2.02173913,11.01086957,-0.09575104728,0.1388390186,10.44643926,3,0.00333000333,300300,-0.8854961832,1.358778626,-0.9770992366,0.11994003,0.1094452774,-0.1019490255,1278.388278,1445
2023/06/30 14:24:05,1.891304348,2.010869565,11,-0.09096349491,0.1388390186,10.4225015,3,0.00333000333,300300,-0.7786259542,1.34351145,-0.5038167939,0.131934033,0.1004497751,-0.09595202399,1282.783883,1445
2023/06/30 14:24:05,1.869565217,2.032608696,11.01086957,-0.09575104728,0.1388390186,10.44883303,3,0.00333000333,300300,-0.9923664122,1.618320611,-0.7938931298,0.1139430285,0.1049475262,-0.08845577211,1280.586081,1445
2023/06/30 14:24:05,1.880434783,2.02173913,11,-0.1101137044,0.1508078995,10.44643926,3,0.00333000333,300300,-0.9312977099,1.34351145,-0.7328244275,0.1259370315,0.1034482759,-0.09445277361,1282.051282,1445
2023/06/30 14:24:05,1.880434783,2.032608696,11.0326087,-0.1077199282,0.1436265709,10.44165171,3,0.00333000333,300300,-0.5801526718,1.129770992,-0.9770992366,0.1154422789,0.09745127436,-0.09745127436,1279.120879,1445
2023/06/30 14:24:05,1.891304348,2.043478261,11,-0.1029323758,0.1340514662,10.44643926,3,0.00333000333,300300,-0.6259541985,1.435114504,-1.053435115,0.1184407796,0.09295352324,-0.09895052474,1282.051282,1445
2023/06/30 14:24:05,1.880434783,2.02173913,11.02173913,-0.105326152,0.13165769,10.43686415,3,0.003774003774,264970.5882,-0.8091603053,1.267175573,-0.7633587786,0.1154422789,0.09595202399,-0.09745127436,1284.249084,1445
2023/06/30 14:24:06,1.869565217,2.043478261,11.0326087,-0.1077199282,0.1412327947,10.43447038,3,0.00333000333,300300,-0.8244274809,1.34351145,-0.7938931298,0.1214392804,0.09295352324,-0.09895052474,1281.318681,1446
2023/06/30 14:24:06,1.880434783,2.02173913,11.02173913,-0.1149012567,0.13165769,10.44643926,3,0.00333000333,300300,-0.7938931298,1.496183206,-0.7480916031,0.1274362819,0.1004497751,-0.1034482759,1282.783883,1446
2023/06/30 14:24:06,2.173913043,1.141304348,11.04347826,-0.1196888091,-3.116696589,10.48952723,3,0.003774003774,264970.5882,-1.099236641,1.114503817,-3.86259542,0.1244377811,0.09745127436,-0.09145427286,1276.923077,1446
2023/06/30 14:24:06,1.869565217,1.086956522,11.05434783,-0.1220825853,1.02214243,10.44404548,3,0.00333000333,300300,-1.236641221,1.083969466,-3.618320611,0.1154422789,0.1034482759,-0.1004497751,1271.794872,1446
2023/06/30 14:24:06,1.923913043,0.847826087,10.98913043,-0.1029323758,-1.558348294,10.46558947,3,0.003774003774,264970.5882,-1.053435115,1.526717557,1.755725191,0.1109445277,0.1094452774,-0.1019490255,1279.85348,1446
2023/06/30 14:24:06,1.793478261,1.445652174,11.05434783,-0.1077199282,-0.8306403351,10.43686415,3,0.00333000333,300300,-1.053435115,0.5954198473,1.816793893,0.1169415292,0.1154422789,-0.1184407796,1273.992674,1446
2023/06/30 14:24:06,1.902173913,0.8152173913,11.11956522,-0.08856971873,0.026331538,10.47516457,3,0.00333000333,300300,-0.9770992366,1.145038168,-4.427480916,0.1139430285,0.1139430285,-0.1274362819,1265.201465,1446
2023/06/30 14:24:06,1.869565217,1.108695652,10.97826087,-0.1077199282,-1.733093956,10.48713345,3,0.00333000333,300300,-1.06870229,1.816793893,-2.824427481,0.1064467766,0.1094452774,-0.1424287856,1280.586081,1446
2023/06/30 14:24:06,1.804347826,1.22826087,11.02173913,-0.1795332136,-0.8282465589,10.41053262,3,0.003774003774,264970.5882,-0.9618320611,0.7633587786,-4.335877863,0.1184407796,0.1124437781,-0.1634182909,1283.516484,1446
2023/06/30 14:24:06,1.826086957,1.456521739,10.98913043,-0.1508078995,-0.9527229204,10.4320766,3,0.003774003774,264970.5882,-0.3511450382,2.259541985,-7.832061069,0.1184407796,0.1094452774,-0.1859070465,1284.249084,1446
2023/06/30 14:24:06,1.989130435,0.5760869565,11.10869565,-0.1077199282,-0.3016157989,10.52782765,3,0.00333000333,300300,-1.06870229,1.633587786,0.7633587786,0.1169415292,0.1184407796,-0.1979010495,1273.260073,1446
2023/06/30 14:24:06,1.902173913,0.7934782609,11.10869565,-0.05984440455,-0.52663076,10.51346499,3,0.003774003774,264970.5882,-0.5496183206,1.72519084,3.648854962,0.1109445277,0.1184407796,-0.2293853073,1265.201465,1446
2023/06/30 14:24:06,1.891304348,0.7282608696,11.06521739,-0.1029323758,-1.39796529,10.38898863,3,0.00333000333,300300,0.01526717557,0.8854961832,5.190839695,0.1244377811,0.1244377811,-0.2368815592,1267.399267,1446
2023/06/30 14:24:06,1.869565217,0.902173913,11.02173913,-0.08617594255,-2.092160383,10.37941352,3,0.00333000333,300300,-1.58778626,-1.877862595,-3.374045802,0.1229385307,0.1259370315,-0.2803598201,1271.794872,1446
2023/06/30 14:24:06,1.880434783,0.6195652174,11.05434783,-0.1436265709,-1.098743268,10.53740275,3,0.00333000333,300300,-0.4427480916,0.7938931298,1.984732824,0.1349325337,0.1229385307,-0.2833583208,1263.736264,1446
2023/06/30 14:24:06,1.97826087,0.7282608696,11.08695652,-0.1364452424,-1.453022142,10.45362059,3,0.00333000333,300300,-1.022900763,-0.4580152672,7.374045802,0.1379310345,0.11994003,-0.311844078,1263.003663,1446
2023/06/30 14:24:06,1.902173913,0.4673913043,11.05434783,-0.1292639138,-2.180730102,10.53979653,3,0.003774003774,264970.5882,-4.41221374,-4.625954198,3.709923664,0.1469265367,0.1229385307,-0.3313343328,1259.340659,1446
2023/06/30 14:24:06,1.97826087,0.5543478261,10.93478261,-0.1101137044,-1.129862358,10.50388989,3,0.003774003774,264970.5882,0.9923664122,13.23664122,8.335877863,0.1544227886,0.1169415292,-0.3418290855,1273.260073,1446
2023/06/30 14:24:06,1.5,0.3369565217,11.2826087,-0.1747456613,-2.192698983,10.25493716,3,0.003774003774,264970.5882,-0.06106870229,3.526717557,-17.86259542,0.1664167916,0.1109445277,-0.3658170915,1233.699634,1446
2023/06/30 14:24:06,2.010869565,-0.8260869565,10.97826087,0.04548174746,-1.589467385,10.4320766,3,0.00333000333,300300,-2.427480916,-2.061068702,11.55725191,0.1514242879,0.1034482759,-0.371814093,1243.223443,1446
2023/06/30 14:24:06,1.989130435,0.6086956522,11.06521739,-0.004787552364,-1.383602633,10.29323758,3,0.003774003774,264970.5882,-0.4885496183,5.618320611,10.30534351,0.1604197901,0.1019490255,-0.3883058471,1227.106227,1446
2023/06/30 14:24:06,1.304347826,0.75,10.90217391,-0.06463195691,-1.754637941,10.51346499,3,0.00333000333,300300,-4.458015267,-8.427480916,-5.419847328,0.1649175412,0.08995502249,-0.4017991004,1240.29304,1446
2023/06/30 14:24:06,1.554347826,1.663043478,10.75,-0.4883303411,-2.044284859,10.16157989,3,0.003774003774,264970.5882,1.801526718,2.305343511,-22.90076336,0.1739130435,0.1019490255,-0.4077961019,1263.736264,1446
2023/06/30 14:24:06,1.641304348,1.239130435,11.16304348,-0.07181328546,-1.4171155,10.23818073,3,0.00333000333,300300,-3.06870229,-3.450381679,-0.9007633588,0.1709145427,0.08395802099,-0.4152923538,1263.736264,1446
2023/06/30 14:24:06,1.815217391,1.347826087,10.80434783,-0.02872531418,-1.046080192,10.4823459,3,0.00333000333,300300,-2.900763359,3.145038168,4.839694656,0.191904048,0.08695652174,-0.4287856072,1314.285714,1446
2023/06/30 14:24:06,1.423913043,1.858695652,11.10869565,-0.1340514662,-0.9838420108,10.56373429,3,0.00333000333,300300,-1.175572519,1.984732824,-2.885496183,0.1949025487,0.07346326837,-0.4317841079,1306.959707,1446
2023/06/30 14:24:06,0.3260869565,2.195652174,11.0326087,0.3064033513,-1.2663076,10.11370437,3,0.00333000333,300300,-1.022900763,-3.664122137,-12.09160305,0.1904047976,0.06446776612,-0.4152923538,1265.201465,1446
2023/06/30 14:24:06,2.663043478,1.869565217,10.94565217,0.1364452424,0.4979054458,10.03710353,3,0.00333000333,300300,0.8244274809,2.381679389,10.76335878,0.2053973013,0.04797601199,-0.4302848576,1293.772894,1446
2023/06/30 14:24:06,1.97826087,2.380434783,11.09782609,-0.01915020946,0.3064033513,10.52064632,3,0.00333000333,300300,2.870229008,7.221374046,4.213740458,0.2083958021,0.02848575712,-0.4317841079,1279.85348,1446
2023/06/30 14:24:06,1.956521739,2.619565217,10.92391304,-0.5505685218,0.9048473968,10.21663674,3,0.00333000333,300300,1.038167939,5.374045802,-8.549618321,0.1829085457,0.03148425787,-0.4317841079,1278.388278,1446
2023/06/30 14:24:06,1.663043478,3.52173913,11.29347826,-0.2034709755,0.6367444644,10.35068821,3,0.00333000333,300300,-5.770992366,-5.541984733,-5.770992366,0.1859070465,0.035982009,-0.4362818591,1238.095238,1446
2023/06/30 14:24:06,1.239130435,2.608695652,10.89130435,-0.04787552364,1.125074806,10.39377618,3,0.003774003774,264970.5882,-0.7175572519,2.564885496,-12.48854962,0.1874062969,0.02248875562,-0.4317841079,1286.446886,1446
2023/06/30 14:24:06,2.260869565,2.380434783,11.17391304,0.6175942549,1.220825853,10.47037702,3,0.003774003774,264970.5882,-0.9770992366,-2.290076336,8.122137405,0.1934032984,0.01949025487,-0.4242878561,1270.32967,1446
2023/06/30 14:24:06,0.9782608696,4.456521739,11.05434783,-0.7540394973,2.774386595,10.42010772,3,0.003774003774,264970.5882,0.07633587786,5.374045802,-28.24427481,0.1934032984,0.01949025487,-0.4092953523,1274.725275,1446
2023/06/30 14:24:06,1.445652174,3.836956522,10.89130435,0.2034709755,1.194494315,10.32675045,3,0.003774003774,264970.5882,-2.351145038,-7.480916031,-0.5496183206,0.1964017991,0.0179910045,-0.3823088456,1300.3663,1446
2023/06/30 14:24:06,1.760869565,4,11.18478261,0.05026929982,1.852782765,10.53500898,3,0.00333000333,300300,-2.839694656,-2.381679389,10.54961832,0.1904047976,0.005997001499,-0.371814093,1318.681319,1446
2023/06/30 14:24:06,2.184782609,4.130434783,11.22826087,-0.1125074806,2.740873728,10.45122681,3,0.00333000333,300300,-2.167938931,-1.480916031,-3.603053435,0.1769115442,-0.00299850075,-0.3433283358,1298.168498,1446
2023/06/30 14:24:06,1.597826087,3.684782609,10.81521739,0.04548174746,2.034709755,10.331538,3,0.003774003774,264970.5882,-1.374045802,3.816793893,-6.671755725,0.1544227886,0.007496251874,-0.3088455772,1290.10989,1446
2023/06/30 14:24:06,1.847826087,4.195652174,11.10869565,0.07420706164,2.178336326,10.52064632,3,0.00333000333,300300,-0.213740458,-0.1374045802,-4.427480916,0.1529235382,0.001499250375,-0.2668665667,1281.318681,1446
2023/06/30 14:24:06,1.836956522,4.097826087,11.02173913,-0.01915020946,2.36983842,10.5326152,3,0.003774003774,264970.5882,-2.473282443,-2.717557252,-1.083969466,0.155922039,0.02548725637,-0.23988006,1281.318681,1446
2023/06/30 14:24:06,1.923913043,5.815217391,10.90217391,-0.1915020946,3.418312388,10.46319569,3,0.00333000333,300300,-0.6870229008,2.977099237,-6.732824427,0.1604197901,0.03298350825,-0.1964017991,1295.970696,1446
2023/06/30 14:24:06,1.717391304,5.043478261,11.11956522,-0.1938958707,2.511071215,10.38898863,3,0.00333000333,300300,-1.20610687,0.8549618321,-8.610687023,0.155922039,0.05847076462,-0.1784107946,1282.783883,1446
2023/06/30 14:24:06,1.97826087,3.989130435,10.98913043,-0.1196888091,2.209455416,10.54937163,3,0.00333000333,300300,-0.8702290076,1.328244275,-5.114503817,0.1694152924,0.06446776612,-0.1634182909,1292.307692,1446
2023/06/30 14:24:06,1.934782609,3.27173913,11.02173913,-0.1077199282,1.931777379,10.46319569,3,0.00333000333,300300,-0.8549618321,0.4122137405,-2.595419847,0.1634182909,0.08545727136,-0.1499250375,1298.168498,1446
2023/06/30 14:24:06,1.847826087,3.47826087,11,-0.1220825853,1.615798923,10.4727708,3,0.00333000333,300300,-0.5038167939,1.053435115,0.6259541985,0.1709145427,0.09745127436,-0.1484257871,1299.6337,1446
2023/06/30 14:24:06,1.858695652,2.934782609,11,-0.1101137044,1.122681029,10.46319569,3,0.00333000333,300300,-1.145038168,1.022900763,0.09160305344,0.1754122939,0.09295352324,-0.1379310345,1298.168498,1446
2023/06/30 14:24:06,1.880434783,3.152173913,11.02173913,-0.1244763615,1.627767804,10.43686415,3,0.003774003774,264970.5882,-0.641221374,1.20610687,-0.7328244275,0.1814092954,0.09445277361,-0.1349325337,1297.435897,1446
2023/06/30 14:24:06,1.880434783,2.02173913,11.0326087,-0.1172950329,0.0933572711,10.44883303,3,0.00333000333,300300,-0.6870229008,1.06870229,-0.9007633588,0.1784107946,0.1124437781,-0.1334332834,1290.10989,1446
2023/06/30 14:24:06,1.891304348,2.02173913,11.0326087,-0.09096349491,0.09096349491,10.44643926,3,0.003774003774,264970.5882,-0.7938931298,1.038167939,-0.6259541985,0.1844077961,0.1004497751,-0.1379310345,1284.981685,1446
2023/06/30 14:24:06,1.836956522,1.967391304,11.02173913,-0.1508078995,0.06223818073,10.43925793,3,0.00333000333,300300,-0.7480916031,1.190839695,-0.6564885496,0.1829085457,0.1019490255,-0.1349325337,1284.981685,1446
2023/06/30 14:24:07,1.858695652,1.989130435,11.02173913,-0.09814482346,0.09575104728,10.45601436,3,0.00333000333,300300,-0.5038167939,1.435114504,-0.6717557252,0.1814092954,0.1034482759,-0.1364317841,1285.714286,1447
2023/06/30 14:24:07,1.880434783,2,11.01086957,-0.1125074806,0.09814482346,10.44404548,3,0.00333000333,300300,-0.9160305344,1.450381679,-0.6106870229,0.1814092954,0.09445277361,-0.1334332834,1281.318681,1447
2023/06/30 14:24:07,1.869565217,2,11.05434783,-0.1101137044,0.09814482346,10.43925793,3,0.00333000333,300300,-0.5038167939,1.236641221,-1.007633588,0.1844077961,0.09895052474,-0.131934033,1275.457875,1447
2023/06/30 14:24:07,1.891304348,2.010869565,11.0326087,-0.1077199282,0.09096349491,10.45122681,3,0.00333000333,300300,-0.4122137405,1.480916031,-0.7786259542,0.1739130435,0.1034482759,-0.1364317841,1276.923077,1447
2023/06/30 14:24:07,1.869565217,1.989130435,11.02173913,-0.1077199282,0.105326152,10.44165171,3,0.00333000333,300300,-0.6564885496,1.34351145,-0.6870229008,0.1859070465,0.1049475262,-0.131934033,1280.586081,1447
2023/06/30 14:24:07,1.891304348,2.010869565,11.02173913,-0.1077199282,0.09814482346,10.45601436,3,0.00333000333,300300,-0.8549618321,1.236641221,-1.053435115,0.1784107946,0.1049475262,-0.1424287856,1282.783883,1447
2023/06/30 14:24:07,1.880434783,1.989130435,11.02173913,-0.1149012567,0.1101137044,10.44883303,3,0.00333000333,300300,-0.4732824427,1.389312977,-0.8854961832,0.1859070465,0.1034482759,-0.1364317841,1284.981685,1447
2023/06/30 14:24:07,1.891304348,2.010869565,11.02173913,-0.1149012567,0.1029323758,10.44404548,3,0.00333000333,300300,-0.8244274809,1.435114504,-0.7480916031,0.179910045,0.1049475262,-0.1364317841,1284.981685,1447
2023/06/30 14:24:07,1.891304348,1.97826087,11.01086957,-0.1101137044,0.1029323758,10.44883303,3,0.00333000333,300300,-0.6106870229,1.648854962,-0.6106870229,0.1814092954,0.08845577211,-0.1364317841,1282.051282,1447
2023/06/30 14:24:07,1.880434783,2,11.0326087,-0.1029323758,0.09575104728,10.44883303,3,0.004218004218,237078.9474,-0.9312977099,1.450381679,-0.8244274809,0.1769115442,0.09595202399,-0.1334332834,1279.85348,1447
2023/06/30 14:24:07,1.869565217,1.989130435,11.01086957,-0.1149012567,0.08856971873,10.43447038,3,0.003774003774,264970.5882,-0.7786259542,1.312977099,-0.7175572519,0.1859070465,0.09145427286,-0.1379310345,1279.120879,1447
2023/06/30 14:24:07,1.847826087,2,10.98913043,-0.08856971873,0.07420706164,10.39856373,3,0.003774003774,264970.5882,-0.6870229008,1.86259542,-0.8549618321,0.1829085457,0.08845577211,-0.131934033,1284.249084,1447
2023/06/30 14:24:07,1.891304348,1.989130435,11,-0.1077199282,0.09575104728,10.44404548,3,0.003774003774,264970.5882,-0.8396946565,1.603053435,-0.7328244275,0.179910045,0.09445277361,-0.1289355322,1285.714286,1447
2023/06/30 14:24:07,1.858695652,2.010869565,11.0326087,-0.105326152,0.1029323758,10.45122681,3,0.00333000333,300300,-0.641221374,1.541984733,-0.8702290076,0.1949025487,0.09295352324,-0.1379310345,1282.051282,1447
2023/06/30 14:24:07,1.891304348,2.010869565,11.0326087,-0.09814482346,0.1101137044,10.43447038,3,0.00333000333,300300,-0.7175572519,0.9312977099,-0.6259541985,0.1814092954,0.08845577211,-0.1394302849,1279.120879,1447
2023/06/30 14:24:07,2.532608696,2.989130435,11.01086957,-0.1077199282,0.1077199282,10.44404548,3,0.00333000333,300300,-0.4732824427,1.603053435,12.44274809,0.1859070465,0.09895052474,-0.1334332834,1277.655678,1447
2023/06/30 14:24:07,1.869565217,2.010869565,11.01086957,-0.3830041891,-0.6965888689,10.43447038,3,0.003774003774,264970.5882,-0.7328244275,1.236641221,-0.7328244275,0.1844077961,0.1064467766,-0.1349325337,1278.388278,1447
2023/06/30 14:24:07,1.869565217,2,11.0326087,-0.1077199282,0.1077199282,10.42968282,3,0.003774003774,264970.5882,-0.534351145,1.404580153,-0.4580152672,0.191904048,0.09595202399,-0.1349325337,1277.655678,1447
2023/06/30 14:24:07,1.891304348,1.989130435,10.98913043,-0.09096349491,0.0933572711,10.45362059,3,0.00333000333,300300,-1.007633588,1.053435115,-0.8396946565,0.1889055472,0.09895052474,-0.1364317841,1282.051282,1447
2023/06/30 14:24:07,1.869565217,1.989130435,11.04347826,-0.09814482346,0.08617594255,10.4320766,3,0.00333000333,300300,-0.7022900763,1.328244275,-0.9923664122,0.1814092954,0.1019490255,-0.131934033,1279.120879,1447
2023/06/30 14:24:07,1.891304348,2,11.0326087,-0.1101137044,0.07660083782,10.45362059,3,0.00333000333,300300,-0.7938931298,1.267175573,-0.7328244275,0.1874062969,0.09145427286,-0.1289355322,1277.655678,1447
2023/06/30 14:24:07,1.891304348,2,11.0326087,-0.105326152,0.09814482346,10.44643926,3,0.00333000333,300300,-0.7480916031,1.160305344,-0.9618320611,0.1859070465,0.09895052474,-0.1379310345,1277.655678,1447
2023/06/30 14:24:07,1.891304348,1.989130435,11.01086957,-0.1172950329,0.08856971873,10.43925793,3,0.003774003774,264970.5882,-0.7633587786,1.496183206,-1.160305344,0.1844077961,0.09745127436,-0.1334332834,1277.655678,1447
2023/06/30 14:24:07,1.880434783,1.989130435,11.02173913,-0.1101137044,0.1005385996,10.45122681,3,0.00333000333,300300,-0.7480916031,1.358778626,-0.9618320611,0.1829085457,0.08845577211,-0.1394302849,1281.318681,1447
2023/06/30 14:24:07,1.880434783,2,11,-0.105326152,0.1029323758,10.44404548,3,0.003774003774,264970.5882,-0.427480916,1.908396947,-0.8549618321,0.1814092954,0.09895052474,-0.1334332834,1283.516484,1447
2023/06/30 14:24:07,1.858695652,2.010869565,11,-0.1149012567,0.0933572711,10.45601436,3,0.00333000333,300300,-0.7328244275,1.465648855,-1.038167939,0.1724137931,0.09295352324,-0.143928036,1284.249084,1447
2023/06/30 14:24:07,1.880434783,2,11.02173913,-0.09814482346,0.09575104728,10.42968282,3,0.003774003774,264970.5882,-0.534351145,1.20610687,-1.007633588,0.191904048,0.08995502249,-0.1379310345,1284.249084,1447
2023/06/30 14:24:07,1.858695652,1.989130435,11.0326087,-0.105326152,0.09096349491,10.45122681,3,0.00333000333,300300,-0.427480916,1.175572519,-0.8396946565,0.1859070465,0.1034482759,-0.131934033,1280.586081,1447
2023/06/30 14:24:07,1.880434783,1.989130435,11.0326087,-0.1125074806,0.09096349491,10.44883303,3,0.00333000333,300300,-0.8091603053,1.267175573,-0.8244274809,0.1724137931,0.1004497751,-0.1349325337,1279.85348,1447
2023/06/30 14:24:07,1.891304348,2,11.02173913,-0.1029323758,0.08617594255,10.44165171,3,0.004218004218,237078.9474,-0.6870229008,1.419847328,-0.8091603053,0.1844077961,0.09895052474,-0.131934033,1282.051282,1447
2023/06/30 14:24:07,1.869565217,1.989130435,11.01086957,-0.1005385996,0.09814482346,10.45362059,3,0.00333000333,300300,-0.6870229008,1.053435115,-0.9160305344,0.1814092954,0.09595202399,-0.1364317841,1280.586081,1447
2023/06/30 14:24:07,1.880434783,1.989130435,11.02173913,-0.1029323758,0.105326152,10.4320766,3,0.003774003774,264970.5882,-0.9618320611,1.450381679,-0.6259541985,0.1784107946,0.1019490255,-0.1364317841,1282.783883,1447
2023/06/30 14:24:07,1.869565217,2.010869565,11.02173913,-0.1101137044,0.08856971873,10.45601436,3,0.003774003774,264970.5882,-0.8396946565,1.34351145,-0.7175572519,0.191904048,0.1049475262,-0.143928036,1283.516484,1447
2023/06/30 14:24:07,1.891304348,1.989130435,11.01086957,-0.09575104728,0.1029323758,10.43447038,3,0.00333000333,300300,-1.038167939,1.236641221,-0.6564885496,0.179910045,0.1064467766,-0.1334332834,1281.318681,1447
2023/06/30 14:24:07,1.902173913,1.989130435,11.01086957,-0.105326152,0.09814482346,10.44165171,3,0.00333000333,300300,-0.7938931298,1.358778626,-0.5801526718,0.1814092954,0.08995502249,-0.1289355322,1279.120879,1447
2023/06/30 14:24:07,1.880434783,2.010869565,11.0326087,-0.1077199282,0.0933572711,10.43925793,3,0.00333000333,300300,-0.8854961832,1.34351145,-0.9160305344,0.1784107946,0.1034482759,-0.1289355322,1277.655678,1447
2023/06/30 14:24:07,1.880434783,1.97826087,11.0326087,-0.09575104728,0.1029323758,10.4320766,3,0.00333000333,300300,-0.8091603053,1.297709924,-0.6717557252,0.1769115442,0.09445277361,-0.1334332834,1277.655678,1447
2023/06/30 14:24:07,1.847826087,1.989130435,11.0326087,-0.09814482346,0.09575104728,10.45601436,3,0.003774003774,264970.5882,-0.7175572519,1.404580153,-0.9618320611,0.1769115442,0.08845577211,-0.1364317841,1277.655678,1447
2023/06/30 14:24:07,1.891304348,2.02173913,11.01086957,-0.1149012567,0.09575104728,10.43686415,3,0.00333000333,300300,-0.8854961832,1.358778626,-0.9312977099,0.1769115442,0.09445277361,-0.1334332834,1277.655678,1447
2023/06/30 14:24:07,1.869565217,1.989130435,11.02173913,-0.1077199282,0.09575104728,10.43925793,3,0.00333000333,300300,-0.641221374,1.526717557,-0.8244274809,0.1814092954,0.1019490255,-0.1349325337,1281.318681,1447
2023/06/30 14:24:07,1.934782609,2.141304348,10.98913043,-0.09814482346,0.1005385996,10.43447038,3,0.00333000333,300300,-0.7175572519,1.679389313,0.03053435115,0.1739130435,0.09895052474,-0.1349325337,1284.249084,1447
2023/06/30 14:24:07,1.706521739,1.858695652,11.01086957,-0.1747456613,-0.04548174746,10.44883303,3,0.00333000333,300300,-0.6259541985,1.34351145,4.091603053,0.1754122939,0.09595202399,-0.1379310345,1282.051282,1447
2023/06/30 14:24:07,1.858695652,3.304347826,11.01086957,-0.1172950329,1.280670257,10.44643926,3,0.003774003774,264970.5882,-0.7786259542,1.20610687,-0.6106870229,0.1814092954,0.09295352324,-0.1424287856,1280.586081,1447
2023/06/30 14:24:07,1.97826087,3.282608696,11.04347826,-0.13165769,1.618192699,10.44883303,3,0.003774003774,264970.5882,-0.8244274809,1.770992366,-2.549618321,0.1709145427,0.09145427286,-0.1409295352,1280.586081,1447
2023/06/30 14:24:07,1.847826087,3.576086957,11.01086957,-0.05984440455,1.352483543,10.4823459,3,0.00333000333,300300,-0.9923664122,0.4427480916,1.664122137,0.1649175412,0.08395802099,-0.1514242879,1280.586081,1447
2023/06/30 14:24:07,1.72826087,3.565217391,11.02173913,-0.1268701376,1.409934171,10.49192101,3,0.00333000333,300300,-1.06870229,0.427480916,-2.778625954,0.1574212894,0.06446776612,-0.1739130435,1282.783883,1447
2023/06/30 14:24:07,1.956521739,3.119565217,10.94565217,-0.13165769,1.780969479,10.46558947,3,0.00333000333,300300,-0.6259541985,-0.01526717557,-8.351145038,0.1514242879,0.05547226387,-0.1979010495,1288.644689,1447
2023/06/30 14:24:07,1.880434783,3.369565217,10.83695652,0.05745062837,1.244763615,10.32914423,3,0.00333000333,300300,0.07633587786,4.045801527,9.755725191,0.1514242879,0.03748125937,-0.2188905547,1303.296703,1447
2023/06/30 14:24:07,1.913043478,3.152173913,11.02173913,-0.1077199282,2.178336326,10.37701975,3,0.00333000333,300300,-0.5038167939,1.114503817,-2.854961832,0.1469265367,0.02848575712,-0.2488755622,1296.703297,1447
2023/06/30 14:24:07,1.717391304,3.72826087,10.9673913,-0.07420706164,1.938958707,10.33632555,3,0.00333000333,300300,-0.7938931298,0.9465648855,-5.297709924,0.1499250375,0.01649175412,-0.263868066,1289.377289,1447
2023/06/30 14:24:07,2,3.380434783,10.95652174,-0.1436265709,1.910233393,10.37941352,3,0.00333000333,300300,0.8396946565,1.190839695,-3.297709924,0.1529235382,0.01499250375,-0.2923538231,1294.505495,1447
2023/06/30 14:24:08,1.891304348,3.652173913,11.02173913,-0.1962896469,1.395571514,10.42010772,3,0.003774003774,264970.5882,0.3816793893,4.427480916,0.5954198473,0.1694152924,0.005997001499,-0.3223388306,1288.644689,1448
2023/06/30 14:24:08,1.869565217,3.739130435,10.94565217,-0.1532016756,1.666068223,10.16157989,3,0.00333000333,300300,0.2595419847,2.396946565,-0.3664122137,0.1769115442,0.001499250375,-0.3628185907,1282.783883,1448
2023/06/30 14:24:08,1.934782609,3.630434783,11.14130435,-0.3327348893,2.013165769,10.36265709,3,0.00333000333,300300,-1.328244275,-2.717557252,-12.47328244,0.1814092954,0.005997001499,-0.383808096,1247.619048,1448
2023/06/30 14:24:08,2.217391304,3.489130435,11.09782609,0.1077199282,2.405745063,10.2812687,3,0.00333000333,300300,0.7175572519,0.5190839695,2.809160305,0.1934032984,0.008995502249,-0.4047976012,1238.827839,1448
2023/06/30 14:24:08,1.880434783,4.445652174,10.9673913,-0.07181328546,2.276481149,10.39138241,3,0.003774003774,264970.5882,-1.129770992,0.5496183206,10.27480916,0.1964017991,0.02098950525,-0.4077961019,1252.747253,1448
2023/06/30 14:24:08,1.782608696,4.25,11.01086957,-0.2944344704,2.183123878,10.38659485,3,0.004218004218,237078.9474,-0.6717557252,-2.335877863,-23.05343511,0.1904047976,0.0179910045,-0.4152923538,1246.153846,1448
2023/06/30 14:24:08,2.358695652,3.141304348,11.01086957,0.03111909037,1.733093956,10.09934171,3,0.00333000333,300300,0.5190839695,5.450381679,0.03053435115,0.1994002999,0.03448275862,-0.4182908546,1252.747253,1448
2023/06/30 14:24:08,1.945652174,3.836956522,11.23913043,-0.3040095751,1.941352484,10.17833633,3,0.003774003774,264970.5882,0.9465648855,-3.496183206,-7.06870229,0.179910045,0.04347826087,-0.4287856072,1219.047619,1448
2023/06/30 14:24:08,1.77173913,3.891304348,11.08695652,-0.289646918,1.634949132,10.36983842,3,0.003774003774,264970.5882,-1.175572519,-7.129770992,5.419847328,0.1829085457,0.02848575712,-0.4167916042,1227.106227,1448
2023/06/30 14:24:08,1.47826087,2.586956522,11.43478261,-0.2082585278,1.68043088,10.04428486,3,0.00333000333,300300,-1.328244275,-2.167938931,-0.4122137405,0.1889055472,0.035982009,-0.4287856072,1194.871795,1448
2023/06/30 14:24:08,1.97826087,2.565217391,10.91304348,0.009575104728,0.8665469779,10.20227409,3,0.003774003774,264970.5882,4.900763359,5.847328244,-12.83969466,0.1949025487,0.04947526237,-0.4257871064,1237.362637,1448
2023/06/30 14:24:08,1.880434783,1.97826087,11.60869565,-0.03351286655,0.710951526,9.622980251,3,0.00333000333,300300,-2.259541985,-2.152671756,16.77862595,0.1964017991,0.06596701649,-0.4257871064,1145.787546,1448
2023/06/30 14:24:08,2.391304348,2.565217391,10.94565217,-0.5122681029,0.9383602633,10.19748654,3,0.00333000333,300300,-1.496183206,0.03053435115,-3.709923664,0.1964017991,0.08545727136,-0.4167916042,1231.501832,1448
2023/06/30 14:24:08,2.217391304,1.760869565,10.92391304,0.026331538,0.1125074806,10.09694794,3,0.003774003774,264970.5882,-1.58778626,0.213740458,-10.71755725,0.1829085457,0.06446776612,-0.4242878561,1241.758242,1448
2023/06/30 14:24:08,2.152173913,1.760869565,11.17391304,0.078994614,-0.1627767804,9.723518851,3,0.00333000333,300300,-4.961832061,-1.801526718,-2,0.1769115442,0.09145427286,-0.4107946027,1212.454212,1448
2023/06/30 14:24:08,1.989130435,1.858695652,11.26086957,-0.1675643327,0.02872531418,10.05625374,3,0.00333000333,300300,-2.702290076,-0.3969465649,20.53435115,0.1769115442,0.107946027,-0.4122938531,1190.47619,1448
2023/06/30 14:24:08,1.760869565,1.652173913,10.97826087,-0.01436265709,-0.7229204069,10.10891682,3,0.003774003774,264970.5882,-0.7328244275,-5.496183206,-31.02290076,0.1619190405,0.09445277361,-0.3988005997,1243.956044,1448
2023/06/30 14:24:08,2.043478261,0.25,11.09782609,0.09096349491,-1.627767804,10.18791143,3,0.00333000333,300300,-2.183206107,-6.41221374,-22.29007634,0.1544227886,0.09445277361,-0.3778110945,1293.772894,1448
2023/06/30 14:24:08,1.858695652,0.1304347826,10.76086957,-0.2226211849,-1.76181927,10.3722322,3,0.00333000333,300300,-1.419847328,11.70992366,20.13740458,0.1469265367,0.1034482759,-0.3628185907,1365.567766,1448
2023/06/30 14:24:08,1.891304348,0.1739130435,11.05434783,-0.07660083782,-1.89347696,10.31478157,3,0.00333000333,300300,3.129770992,6.748091603,-4.687022901,0.1499250375,0.1184407796,-0.3298350825,1347.985348,1448
2023/06/30 14:24:08,1.836956522,0.4456521739,11.22826087,-0.1077199282,-2.412926391,10.25733094,3,0.00333000333,300300,-0.3969465649,4.41221374,9.114503817,0.1349325337,0.1184407796,-0.3133433283,1306.959707,1448
2023/06/30 14:24:08,1.934782609,-0.6195652174,10.90217391,-0.1196888091,-3.001795332,10.49431478,3,0.00333000333,300300,-0.7633587786,2.595419847,2.580152672,0.1304347826,0.11994003,-0.2803598201,1330.40293,1448
2023/06/30 14:24:08,2.010869565,-1.304347826,11,0.05984440455,-3.717534411,10.51825254,3,0.00333000333,300300,0.7328244275,-0.4885496183,-12.51908397,0.1304347826,0.1244377811,-0.2428785607,1328.205128,1448
2023/06/30 14:24:08,1.967391304,-1.369565217,11.05434783,-0.078994614,-3.664871335,10.3818073,3,0.00333000333,300300,-1.34351145,1.496183206,6.458015267,0.1169415292,0.1334332834,-0.2068965517,1312.820513,1448
2023/06/30 14:24:08,1.641304348,-0.5217391304,11,-0.1747456613,-3.377618193,10.4320766,3,0.003774003774,264970.5882,-0.7022900763,0.2290076336,8.778625954,0.1064467766,0.1169415292,-0.1754122939,1293.772894,1448
2023/06/30 14:24:08,1.869565217,-0.2391304348,11.01086957,-0.1029323758,-2.209455416,10.45362059,3,0.00333000333,300300,-0.8091603053,0.09160305344,-2.839694656,0.1064467766,0.1004497751,-0.1604197901,1295.970696,1448
2023/06/30 14:24:08,1.923913043,-0.3804347826,11.08695652,-0.1125074806,-2.934769599,10.48713345,3,0.00333000333,300300,-0.3511450382,1.72519084,-2.061068702,0.1169415292,0.1034482759,-0.1454272864,1291.575092,1448
2023/06/30 14:24:08,1.847826087,0.6086956522,11.02173913,-0.09814482346,-1.44823459,10.45362059,3,0.00333000333,300300,-0.7786259542,1.34351145,-2.961832061,0.1139430285,0.09745127436,-0.1214392804,1287.912088,1448
2023/06/30 14:24:08,1.902173913,1.293478261,11.02173913,-0.09096349491,-1.101137044,10.43925793,3,0.00333000333,300300,-0.7022900763,1.022900763,-1.267175573,0.1214392804,0.1064467766,-0.11994003,1284.981685,1448
2023/06/30 14:24:08,1.847826087,1.826086957,11.0326087,-0.1005385996,-0.2058647516,10.43925793,3,0.00333000333,300300,-0.9312977099,1.175572519,-0.5190839695,0.1184407796,0.09895052474,-0.1169415292,1280.586081,1448
2023/06/30 14:24:08,1.891304348,1.532608696,11.04347826,-0.08856971873,-0.4572112507,10.44165171,3,0.003774003774,264970.5882,-0.6870229008,1.007633588,0.320610687,0.1169415292,0.1139430285,-0.1154422789,1277.655678,1448
2023/06/30 14:24:08,1.880434783,1.989130435,11.04347826,-0.105326152,0.05026929982,10.42968282,3,0.00333000333,300300,-0.8244274809,0.9770992366,0.8244274809,0.1064467766,0.1004497751,-0.1094452774,1276.190476,1448
2023/06/30 14:24:08,1.858695652,2.369565217,11.01086957,-0.1149012567,0.2585278276,10.43686415,3,0.003774003774,264970.5882,-0.6870229008,1.282442748,-0.2290076336,0.1169415292,0.09595202399,-0.1124437781,1277.655678,1448
2023/06/30 14:24:08,1.891304348,1.630434783,11.02173913,-0.08378216637,-0.2034709755,10.45122681,3,0.003774003774,264970.5882,-0.7022900763,1.465648855,-0.1221374046,0.11994003,0.1109445277,-0.1169415292,1284.249084,1448
2023/06/30 14:24:08,1.869565217,2.032608696,11.0326087,-0.1125074806,-0.2345900658,10.44165171,3,0.003774003774,264970.5882,-1.038167939,1.374045802,-0.9770992366,0.1154422789,0.08845577211,-0.1094452774,1281.318681,1448
2023/06/30 14:24:08,1.891304348,2.032608696,11.0326087,-0.105326152,0.13165769,10.44643926,3,0.003774003774,264970.5882,-0.7938931298,1.389312977,-0.7786259542,0.1169415292,0.09745127436,-0.1019490255,1279.120879,1448
2023/06/30 14:24:08,1.913043478,2.02173913,11.0326087,-0.1220825853,0.1388390186,10.43447038,3,0.00333000333,300300,-0.7175572519,1.221374046,-0.9007633588,0.1184407796,0.1064467766,-0.1064467766,1277.655678,1448
2023/06/30 14:24:08,1.858695652,2.02173913,11.04347826,-0.1005385996,0.1436265709,10.44643926,3,0.00333000333,300300,-0.9160305344,1.435114504,-0.8854961832,0.1274362819,0.1004497751,-0.1049475262,1276.923077,1448
2023/06/30 14:24:08,1.902173913,2.043478261,11.04347826,-0.1125074806,0.1268701376,10.43447038,3,0.00333000333,300300,-0.6870229008,1.404580153,-0.9770992366,0.1304347826,0.09745127436,-0.1064467766,1276.190476,1448
2023/06/30 14:24:08,1.891304348,2.043478261,11.01086957,-0.105326152,0.1340514662,10.42968282,3,0.00333000333,300300,-0.8091603053,1.389312977,-0.7175572519,0.1214392804,0.1049475262,-0.1049475262,1277.655678,1448
2023/06/30 14:24:08,1.891304348,2.043478261,11.01086957,-0.09096349491,0.1364452424,10.43686415,3,0.00333000333,300300,-0.7786259542,1.419847328,-0.5190839695,0.1214392804,0.1064467766,-0.1094452774,1278.388278,1448
2023/06/30 14:24:08,1.880434783,2.02173913,11.0326087,-0.1077199282,0.1484141233,10.44883303,3,0.003774003774,264970.5882,-0.8244274809,1.236641221,-0.5954198473,0.1259370315,0.09895052474,-0.107946027,1276.923077,1448
2023/06/30 14:24:08,1.891304348,2.054347826,11.02173913,-0.1125074806,0.1436265709,10.4320766,3,0.00333000333,300300,-0.6106870229,1.557251908,-0.9618320611,0.1229385307,0.1049475262,-0.1004497751,1279.85348,1448
2023/06/30 14:24:08,1.891304348,2.032608696,11.01086957,-0.1029323758,0.13165769,10.44404548,3,0.003774003774,264970.5882,-0.8702290076,1.282442748,-0.8091603053,0.1274362819,0.1139430285,-0.1034482759,1279.120879,1448
2023/06/30 14:24:08,1.869565217,2.02173913,11.04347826,-0.1125074806,0.1388390186,10.45122681,3,0.00333000333,300300,-0.641221374,1.511450382,-0.8702290076,0.1184407796,0.08845577211,-0.1064467766,1278.388278,1448
2023/06/30 14:24:08,1.880434783,2.043478261,11,-0.1005385996,0.1268701376,10.44404548,3,0.00333000333,300300,-0.8091603053,1.312977099,-0.7175572519,0.1229385307,0.1004497751,-0.107946027,1282.051282,1448
2023/06/30 14:24:08,1.880434783,2.02173913,11.0326087,-0.09814482346,0.1244763615,10.44404548,3,0.00333000333,300300,-1.06870229,1.297709924,-0.7938931298,0.11994003,0.09895052474,-0.1109445277,1279.85348,1448
2023/06/30 14:24:08,1.869565217,2.032608696,10.98913043,-0.09814482346,0.1172950329,10.44883303,3,0.00333000333,300300,-0.8549618321,1.404580153,-0.8854961832,0.11994003,0.09895052474,-0.1034482759,1282.051282,1448
2023/06/30 14:24:08,1.869565217,2.032608696,11.01086957,-0.1077199282,0.13165769,10.44165171,3,0.003774003774,264970.5882,-0.5038167939,1.465648855,-0.8702290076,0.1184407796,0.1004497751,-0.1094452774,1280.586081,1448
2023/06/30 14:24:08,1.869565217,2.043478261,11.0326087,-0.105326152,0.1364452424,10.42968282,3,0.00333000333,300300,-0.7480916031,1.404580153,-0.9618320611,0.1154422789,0.1094452774,-0.1124437781,1279.120879,1448
2023/06/30 14:24:09,1.869565217,2.032608696,11.04347826,-0.1005385996,0.1412327947,10.4225015,3,0.003774003774,264970.5882,-0.6717557252,1.450381679,-0.8091603053,0.1274362819,0.1004497751,-0.1064467766,1278.388278,1449
2023/06/30 14:24:09,1.880434783,2.02173913,11.02173913,-0.1077199282,0.1340514662,10.43686415,3,0.00333000333,300300,-0.8854961832,1.312977099,-0.9618320611,0.1169415292,0.1034482759,-0.1064467766,1282.051282,1449
2023/06/30 14:24:09,1.880434783,2.02173913,11.02173913,-0.09814482346,0.1412327947,10.44883303,3,0.00333000333,300300,-0.9007633588,1.251908397,-0.9312977099,0.1139430285,0.1019490255,-0.1049475262,1282.783883,1449
2023/06/30 14:24:09,1.891304348,2.02173913,11.0326087,-0.1125074806,0.1388390186,10.44165171,3,0.003774003774,264970.5882,-0.6717557252,1.374045802,-1.053435115,0.1184407796,0.1064467766,-0.1064467766,1279.85348,1449
2023/06/30 14:24:09,1.891304348,2.032608696,11.02173913,-0.1101137044,0.1340514662,10.43925793,3,0.00333000333,300300,-0.4885496183,1.633587786,-0.9770992366,0.1154422789,0.1049475262,-0.107946027,1283.516484,1449
2023/06/30 14:24:09,1.858695652,2,11.02173913,-0.105326152,0.1292639138,10.46080192,3,0.00333000333,300300,-0.8702290076,1.496183206,-0.7175572519,0.1184407796,0.1034482759,-0.11994003,1284.981685,1449
2023/06/30 14:24:09,1.869565217,2.02173913,11.01086957,-0.09575104728,0.1340514662,10.43925793,3,0.00333000333,300300,-1.114503817,1.648854962,-0.8549618321,0.1139430285,0.09895052474,-0.1094452774,1281.318681,1449
2023/06/30 14:24:09,1.858695652,2.02173913,11.02173913,-0.105326152,0.1412327947,10.4320766,3,0.00333000333,300300,-0.6870229008,1.450381679,-0.6870229008,0.1214392804,0.1169415292,-0.1064467766,1282.783883,1449
2023/06/30 14:24:09,1.891304348,2.043478261,11.04347826,-0.1005385996,0.1292639138,10.45122681,3,0.00333000333,300300,-0.7633587786,1.389312977,-0.5648854962,0.1169415292,0.09895052474,-0.1109445277,1279.120879,1449
2023/06/30 14:24:09,1.847826087,2.043478261,11.02173913,-0.09575104728,0.1436265709,10.44883303,3,0.00333000333,300300,-0.8549618321,1.389312977,-0.6259541985,0.1154422789,0.1034482759,-0.1109445277,1282.051282,1449
2023/06/30 14:24:09,1.869565217,2.02173913,11.0326087,-0.1101137044,0.1292639138,10.43686415,3,0.003774003774,264970.5882,-0.8244274809,1.221374046,-0.6564885496,0.1139430285,0.1019490255,-0.1124437781,1280.586081,1449
2023/06/30 14:24:09,1.869565217,2.02173913,11.01086957,-0.1029323758,0.1220825853,10.43686415,3,0.00333000333,300300,-0.641221374,1.465648855,-0.8244274809,0.1184407796,0.1019490255,-0.1004497751,1279.120879,1449
2023/06/30 14:24:09,1.858695652,2.032608696,11.01086957,-0.1005385996,0.1340514662,10.44404548,3,0.00333000333,300300,-0.5648854962,1.786259542,-0.4580152672,0.1214392804,0.107946027,-0.1109445277,1277.655678,1449
2023/06/30 14:24:09,1.891304348,2.032608696,11.0326087,-0.1029323758,0.1460203471,10.44643926,3,0.003774003774,264970.5882,-0.7328244275,1.160305344,-0.8396946565,0.1214392804,0.1004497751,-0.1139430285,1277.655678,1449
2023/06/30 14:24:09,1.902173913,2.010869565,11.02173913,-0.1101137044,0.1340514662,10.43925793,3,0.00333000333,300300,-0.8244274809,1.419847328,-1.053435115,0.1214392804,0.09895052474,-0.1064467766,1281.318681,1449
2023/06/30 14:24:09,1.869565217,2.043478261,11.01086957,-0.105326152,0.1292639138,10.4225015,3,0.00333000333,300300,-0.8396946565,1.282442748,-0.8702290076,0.1184407796,0.1034482759,-0.1124437781,1279.85348,1449
2023/06/30 14:24:09,1.880434783,2.054347826,11.01086957,-0.09575104728,0.1268701376,10.42968282,3,0.00333000333,300300,-0.8091603053,1.099236641,-0.7786259542,0.1229385307,0.1019490255,-0.1109445277,1279.120879,1449
2023/06/30 14:24:09,1.869565217,2.02173913,11.02173913,-0.1101137044,0.1388390186,10.43925793,3,0.003774003774,264970.5882,-0.8396946565,1.557251908,-0.9465648855,0.1214392804,0.1049475262,-0.1109445277,1281.318681,1449
2023/06/30 14:24:09,1.880434783,2.02173913,11.01086957,-0.1172950329,0.1388390186,10.43925793,3,0.003774003774,264970.5882,-0.5954198473,1.358778626,-0.9923664122,0.11994003,0.09745127436,-0.107946027,1279.120879,1449
2023/06/30 14:24:09,1.880434783,2,11,-0.09575104728,0.1484141233,10.44404548,3,0.003774003774,264970.5882,-0.8854961832,1.34351145,-0.8396946565,0.1154422789,0.1019490255,-0.1049475262,1282.783883,1449
2023/06/30 14:24:09,1.858695652,2.02173913,11.02173913,-0.09814482346,0.1412327947,10.46080192,3,0.00333000333,300300,-0.534351145,1.374045802,-0.8854961832,0.1109445277,0.1034482759,-0.09895052474,1284.249084,1449
2023/06/30 14:24:09,1.858695652,2.043478261,11.0326087,-0.09814482346,0.1268701376,10.45840814,3,0.00333000333,300300,-0.641221374,1.297709924,-0.7633587786,0.1274362819,0.1169415292,-0.1064467766,1281.318681,1449
2023/06/30 14:24:09,1.75,1.967391304,11,-0.1149012567,0.1244763615,10.44404548,3,0.00333000333,300300,-0.6564885496,1.557251908,-1.58778626,0.1154422789,0.1004497751,-0.1049475262,1283.516484,1449
2023/06/30 14:24:09,1.902173913,2.195652174,11.01086957,-0.01675643327,1.287851586,10.42968282,3,0.003774003774,264970.5882,-0.9465648855,1.221374046,-1.038167939,0.11994003,0.1049475262,-0.1064467766,1279.85348,1449
2023/06/30 14:24:09,1.858695652,2.010869565,11.02173913,-0.1172950329,0.1364452424,10.45362059,3,0.00333000333,300300,-0.6870229008,1.328244275,-0.8549618321,0.1244377811,0.09445277361,-0.1124437781,1282.051282,1449
2023/06/30 14:24:09,1.902173913,2.043478261,11.02173913,-0.1029323758,0.1436265709,10.45122681,3,0.00333000333,300300,-0.8702290076,1.236641221,-0.7480916031,0.1274362819,0.09295352324,-0.1109445277,1284.981685,1449
2023/06/30 14:24:09,1.858695652,2.043478261,11.0326087,-0.1029323758,0.1340514662,10.43925793,3,0.00333000333,300300,-0.6717557252,1.374045802,-0.9770992366,0.11994003,0.09895052474,-0.1034482759,1281.318681,1449
2023/06/30 14:24:09,1.891304348,2.032608696,11.0326087,-0.09575104728,0.1364452424,10.45362059,3,0.003774003774,264970.5882,-0.9312977099,1.251908397,-0.7328244275,0.1154422789,0.08845577211,-0.1109445277,1279.120879,1449
2023/06/30 14:24:09,1.880434783,2.010869565,11.0326087,-0.1077199282,0.1268701376,10.43686415,3,0.00333000333,300300,-0.7175572519,1.06870229,-0.7786259542,0.11994003,0.1019490255,-0.1064467766,1277.655678,1449
2023/06/30 14:24:09,1.869565217,2.02173913,11.0326087,-0.1172950329,0.13165769,10.46080192,3,0.00333000333,300300,-0.9770992366,1.053435115,-0.9312977099,0.1139430285,0.09745127436,-0.1094452774,1276.923077,1449
2023/06/30 14:24:09,1.891304348,2.032608696,11.0326087,-0.1029323758,0.1388390186,10.43686415,3,0.00333000333,300300,-0.5801526718,1.435114504,-0.9770992366,0.1244377811,0.1019490255,-0.107946027,1277.655678,1449
2023/06/30 14:24:09,1.869565217,2.043478261,11.02173913,-0.1077199282,0.1220825853,10.43447038,3,0.003774003774,264970.5882,-0.7480916031,1.221374046,-0.8091603053,0.1229385307,0.1034482759,-0.1034482759,1282.051282,1449
2023/06/30 14:24:09,1.891304348,2.043478261,11.0326087,-0.1005385996,0.1388390186,10.44883303,3,0.003774003774,264970.5882,-0.9007633588,1.022900763,-0.7175572519,0.1184407796,0.1049475262,-0.1049475262,1279.85348,1449
2023/06/30 14:24:09,1.880434783,2.032608696,11.01086957,-0.1005385996,0.1292639138,10.43925793,3,0.00333000333,300300,-0.7786259542,0.9618320611,-0.8091603053,0.11994003,0.1064467766,-0.107946027,1277.655678,1449
2023/06/30 14:24:09,1.869565217,2.02173913,11.04347826,-0.1005385996,0.1268701376,10.44404548,3,0.003774003774,264970.5882,-0.5648854962,1.312977099,-0.8091603053,0.1169415292,0.1094452774,-0.107946027,1276.923077,1449
