Shimmer_3B52_Timestamp_Shimmer_CAL,Shimmer_3B52_Accel_LN_X_CAL,Shimmer_3B52_Accel_LN_Y_CAL,Shimmer_3B52_Accel_LN_Z_CAL,Shimmer_3B52_Accel_WR_X_CAL,Shimmer_3B52_Accel_WR_Y_CAL,Shimmer_3B52_Accel_WR_Z_CAL,Shimmer_3B52_GSR_Range_CAL,Shimmer_3B52_GSR_Skin_Conductance_CAL,Shimmer_3B52_GSR_Skin_Resistance_CAL,Shimmer_3B52_Gyro_X_CAL,Shimmer_3B52_Gyro_Y_CAL,Shimmer_3B52_Gyro_Z_CAL,Shimmer_3B52_Mag_X_CAL,Shimmer_3B52_Mag_Y_CAL,Shimmer_3B52_Mag_Z_CAL,Shimmer_3B52_PPG_A12_CAL
806340.4846,1.380434783,10.79347826,1.739130435,-0.6391382406,10.25733094,0.09096349491,3,0.005106005106,195847.8261,-0.7633587786,-0.1832061069,-0.8702290076,-0.9415292354,0.6926536732,1.563718141,1503.296703
806345.4285,1.369565217,10.82608696,1.739130435,-0.6463195691,10.27408737,0.06223818073,3,0.004662004662,214500,-0.7633587786,0.3664122137,-0.7022900763,-0.9415292354,0.6926536732,1.563718141,1505.494505
806350.3723,1.369565217,10.81521739,1.75,-0.6678635548,10.25254339,0.1196888091,3,0.005106005106,195847.8261,-0.7175572519,0.8396946565,-0.9160305344,-0.9355322339,0.6836581709,1.574212894,1499.6337
806355.3162,1.380434783,10.82608696,1.760869565,-0.6391382406,10.27408737,0.07181328546,3,0.004662004662,214500,-1.038167939,0.5190839695,-0.7022900763,-0.9355322339,0.6836581709,1.574212894,1502.564103
806360.26,1.380434783,10.80434783,1.77173913,-0.684619988,10.23818073,0.1149012567,3,0.004662004662,214500,-0.3969465649,0.534351145,-0.7328244275,-0.9505247376,0.7016491754,1.568215892,1497.435897
806365.2039,1.380434783,10.81521739,1.77173913,-0.6535008977,10.25733094,0.07181328546,3,0.004662004662,214500,-0.8854961832,0.8244274809,-0.7328244275,-0.9505247376,0.7016491754,1.568215892,1498.168498
806370.1477,1.391304348,10.82608696,1.72826087,-0.6678635548,10.29802513,0.06463195691,3,0.004662004662,214500,-0.6106870229,1.236641221,-0.641221374,-0.9505247376,0.7076461769,1.580209895,1503.296703
806375.0916,1.369565217,10.81521739,1.739130435,-0.6535008977,10.23578695,0.1268701376,3,0.004662004662,214500,-0.641221374,1.297709924,-0.8396946565,-0.9505247376,0.7076461769,1.580209895,1505.494505
806380.0354,1.380434783,10.80434783,1.739130435,-0.6654697786,10.24536206,0.06941950928,3,0.004662004662,214500,-0.7633587786,0.9618320611,-0.7633587786,-0.9505247376,0.7076461769,1.580209895,1506.227106
806382.5073,1.369565217,10.81521739,1.739130435,-0.6463195691,10.28366248,0.1125074806,3,0.004662004662,214500,-0.9770992366,0.9160305344,-0.5801526718,-0.9460269865,0.7031484258,1.568215892,1506.227106
806387.4512,1.391304348,10.80434783,1.75,-0.6391382406,10.2716936,0.1101137044,3,0.004662004662,214500,-0.8702290076,0.9923664122,-0.534351145,-0.9460269865,0.7031484258,1.568215892,1499.6337
806392.395,1.413043478,10.83695652,1.77173913,-0.631956912,10.26690604,0.1364452424,3,0.005106005106,195847.8261,-0.7938931298,1.099236641,-0.5496183206,-0.9475262369,0.7091454273,1.572713643,1496.703297
806397.3389,1.391304348,10.82608696,1.77173913,-0.65828845,10.27648115,0.09096349491,3,0.005106005106,195847.8261,-0.6717557252,0.8549618321,-0.6870229008,-0.9475262369,0.7091454273,1.572713643,1495.970696
806402.2827,1.369565217,10.82608696,1.782608696,-0.6558946738,10.29084381,0.08617594255,3,0.005106005106,195847.8261,-0.3816793893,0.6870229008,-0.7633587786,-0.9415292354,0.7106446777,1.569715142,1493.772894
806407.2266,1.380434783,10.81521739,1.782608696,-0.631956912,10.26451227,0.08856971873,3,0.004662004662,214500,-0.6106870229,0.5801526718,-0.6259541985,-0.9415292354,0.7106446777,1.569715142,1493.772894
806412.1704,1.369565217,10.81521739,1.760869565,-0.6558946738,10.31478157,0.1292639138,3,0.004662004662,214500,-0.6106870229,0.1374045802,-0.8091603053,-0.9430284858,0.7046476762,1.569715142,1498.168498
806417.1143,1.347826087,10.81521739,1.739130435,-0.6463195691,10.31956912,0.002393776182,3,0.005106005106,195847.8261,-0.6870229008,0.3358778626,-0.7175572519,-0.9430284858,0.7046476762,1.569715142,1503.296703
806422.0581,1.347826087,10.80434783,1.75,-0.6606822262,10.26451227,0.1196888091,3,0.005106005106,195847.8261,-0.8549618321,-0.2900763359,-0.641221374,-0.9580209895,0.6941529235,1.578710645,1495.970696
806427.002,1.369565217,10.81521739,1.75,-0.6535008977,10.27887493,0.08856971873,3,0.005106005106,195847.8261,-0.9007633588,-0.106870229,-0.4732824427,-0.9580209895,0.6941529235,1.578710645,1497.435897
806431.9458,1.380434783,10.79347826,1.75,-0.6702573309,10.30281269,0.07420706164,3,0.005106005106,195847.8261,-0.6717557252,-0.2900763359,-0.9007633588,-0.952023988,0.7061469265,1.580209895,1498.901099
806436.8896,1.369565217,10.81521739,1.75,-0.6175942549,10.25733094,0.09575104728,3,0.005106005106,195847.8261,-0.6106870229,-0.1526717557,-0.5648854962,-0.952023988,0.7061469265,1.580209895,1499.6337
806441.8335,1.369565217,10.80434783,1.739130435,-0.6630760024,10.29323758,0.1029323758,3,0.004662004662,214500,-0.9923664122,-0.5954198473,-0.5801526718,-0.9460269865,0.7046476762,1.569715142,1502.564103
806446.7773,1.391304348,10.79347826,1.760869565,-0.6678635548,10.25493716,0.1125074806,3,0.004662004662,214500,-0.6259541985,-0.7480916031,-0.641221374,-0.9460269865,0.7046476762,1.569715142,1501.098901
806451.7212,1.358695652,10.79347826,1.77173913,-0.6175942549,10.24296828,0.1196888091,3,0.004662004662,214500,-0.8396946565,-0.9923664122,-0.6564885496,-0.9415292354,0.6956521739,1.577211394,1497.435897
806456.665,1.391304348,10.80434783,1.77173913,-0.6295631358,10.2716936,0.1532016756,3,0.004662004662,214500,-0.6106870229,-1.145038168,-0.8091603053,-0.9415292354,0.6956521739,1.577211394,1497.435897
806461.6089,1.336956522,10.81521739,1.739130435,-0.6128067026,10.22860563,0.1962896469,3,0.004662004662,214500,-1.175572519,0.5496183206,-0.6717557252,-0.9415292354,0.7136431784,1.571214393,1506.959707
806466.5527,1.402173913,10.81521739,1.804347826,-0.6415320168,10.30281269,0.1101137044,3,0.005106005106,195847.8261,-0.9465648855,-1.86259542,-0.6106870229,-0.9415292354,0.7136431784,1.571214393,1491.575092
806471.4966,1.315217391,10.79347826,1.673913043,-0.7277079593,10.31478157,-0.04787552364,3,0.004662004662,214500,-1.083969466,1.618320611,-0.7480916031,-0.9415292354,0.7016491754,1.572713643,1514.285714
806476.4404,1.369565217,10.83695652,1.804347826,-0.5960502693,10.32435667,0.2130460802,3,0.004662004662,214500,-0.4122137405,0.5801526718,-0.8244274809,-0.9415292354,0.7016491754,1.572713643,1501.098901
806481.3843,1.380434783,10.81521739,1.739130435,-0.6726511071,10.25014961,0.03830041891,3,0.005106005106,195847.8261,-0.320610687,1.145038168,-0.6717557252,-0.952023988,0.6986506747,1.56071964,1499.6337
806486.3281,1.391304348,10.81521739,1.75,-0.6152004788,10.30041891,0.09814482346,3,0.004662004662,214500,-0.2900763359,0.8549618321,-0.7328244275,-0.952023988,0.6986506747,1.56071964,1498.168498
806491.272,1.391304348,10.82608696,1.77173913,-0.6175942549,10.26451227,0.1220825853,3,0.005106005106,195847.8261,-0.6106870229,0.8549618321,-0.7633587786,-0.9460269865,0.7031484258,1.566716642,1495.970696
806496.2158,1.402173913,10.82608696,1.75,-0.6941950928,10.2812687,0.08856971873,3,0.005106005106,195847.8261,-0.4732824427,0.6259541985,-0.8549618321,-0.9460269865,0.7031484258,1.566716642,1496.703297
806501.1597,1.391304348,10.81521739,1.75,-0.6104129264,10.29802513,0.1125074806,3,0.005106005106,195847.8261,-0.427480916,0.8702290076,-0.8396946565,-0.9475262369,0.7031484258,1.565217391,1499.6337
806506.1035,1.423913043,10.80434783,1.815217391,-0.6271693597,10.25733094,0.09575104728,3,0.005106005106,195847.8261,-0.5954198473,-0.07633587786,-0.7328244275,-0.9475262369,0.7031484258,1.565217391,1489.377289
806511.0474,1.391304348,10.82608696,1.782608696,-0.5840813884,10.29084381,0.06702573309,3,0.004662004662,214500,-0.5190839695,-0.2290076336,-1.022900763,-0.9475262369,0.7196401799,1.565217391,1490.842491
806515.9912,1.380434783,10.82608696,1.760869565,-0.6487133453,10.31238779,0.157989228,3,0.004662004662,214500,-0.4885496183,-0.2748091603,-1.129770992,-0.9475262369,0.7196401799,1.565217391,1499.6337
806520.9351,1.380434783,10.81521739,1.77173913,-0.6415320168,10.28366248,0.1771394375,3,0.004662004662,214500,-0.3053435115,-0.534351145,-1.221374046,-0.9445277361,0.7301349325,1.574212894,1495.970696
806525.8789,1.391304348,10.79347826,1.782608696,-0.5888689408,10.30281269,0.1915020946,3,0.004662004662,214500,-0.3969465649,-1.541984733,-1.251908397,-0.9445277361,0.7301349325,1.574212894,1494.505495
806530.8228,1.402173913,10.83695652,1.793478261,-0.631956912,10.26451227,0.08617594255,3,0.004662004662,214500,-0.2595419847,-2.748091603,-1.221374046,-0.9430284858,0.6956521739,1.572713643,1487.179487
806535.7666,1.413043478,10.81521739,1.782608696,-0.6152004788,10.24775583,0.09575104728,3,0.004662004662,214500,-0.2442748092,-3.511450382,-1.175572519,-0.9430284858,0.6956521739,1.572713643,1489.377289
806540.7104,1.391304348,10.82608696,1.782608696,-0.6511071215,10.25493716,0.0933572711,3,0.004662004662,214500,-0.5801526718,-4.396946565,-1.404580153,-0.9505247376,0.6941529235,1.563718141,1490.10989
806545.6543,1.369565217,10.80434783,1.760869565,-0.6558946738,10.29563136,0.06941950928,3,0.004662004662,214500,-0.5648854962,-4.488549618,-1.465648855,-0.9505247376,0.6941529235,1.563718141,1498.901099
806550.5981,1.369565217,10.80434783,1.760869565,-0.6367444644,10.28366248,0.06223818073,3,0.005106005106,195847.8261,-0.3816793893,-5.526717557,-1.328244275,-0.952023988,0.6971514243,1.577211394,1500.3663
806555.542,1.336956522,10.79347826,1.739130435,-0.8521843208,10.20706164,0.078994614,3,0.004662004662,214500,-1.053435115,-5.633587786,-1.740458015,-0.952023988,0.6971514243,1.577211394,1501.831502
806560.4858,1.336956522,10.81521739,1.72826087,-0.7684021544,10.22381807,-0.08617594255,3,0.004662004662,214500,-0.9312977099,-3.236641221,-1.374045802,-0.9490254873,0.700149925,1.572713643,1504.029304
806565.4297,1.347826087,10.83695652,1.782608696,-0.6487133453,10.28605625,0.13165769,3,0.004662004662,214500,-0.7480916031,-2.351145038,-1.251908397,-0.9490254873,0.700149925,1.572713643,1498.901099
806570.3735,1.326086957,10.81521739,1.75,-0.7013764213,10.26211849,0.007181328546,3,0.005106005106,195847.8261,-1.038167939,-1.358778626,-1.20610687,-0.9490254873,0.6971514243,1.574212894,1496.703297
806575.3174,1.336956522,10.82608696,1.75,-0.6798324357,10.29323758,0.06223818073,3,0.004662004662,214500,-0.6564885496,-0.5801526718,-1.038167939,-0.9490254873,0.6971514243,1.574212894,1497.435897
806580.2612,1.347826087,10.79347826,1.739130435,-0.6822262118,10.25972472,0.05026929982,3,0.004662004662,214500,-0.6717557252,-0.320610687,-1.236641221,-0.9550224888,0.7211394303,1.574212894,1501.098901
806585.2051,1.347826087,10.7826087,1.760869565,-0.6774386595,10.28605625,0.0933572711,3,0.005106005106,195847.8261,-0.7022900763,0.1832061069,-0.8244274809,-0.9550224888,0.7211394303,1.574212894,1503.296703
806590.1489,1.347826087,10.80434783,1.760869565,-0.65828845,10.28845003,0.0933572711,3,0.004662004662,214500,-0.6717557252,0.6259541985,-0.7786259542,-0.9475262369,0.6956521739,1.569715142,1501.098901
806595.0928,1.347826087,10.80434783,1.760869565,-0.6630760024,10.30281269,0.09814482346,3,0.004662004662,214500,-0.5648854962,0.6106870229,-0.7786259542,-0.9475262369,0.6956521739,1.569715142,1503.296703
806600.0366,1.347826087,10.81521739,1.72826087,-0.6606822262,10.24536206,0.05026929982,3,0.004662004662,214500,-0.7480916031,1.312977099,-0.9312977099,-0.9490254873,0.7076461769,1.575712144,1504.029304
806604.9805,1.347826087,10.80434783,1.75,-0.6558946738,10.29084381,0.08378216637,3,0.005106005106,195847.8261,-0.641221374,1.083969466,-1.083969466,-0.9490254873,0.7076461769,1.575712144,1499.6337
806609.9243,1.358695652,10.81521739,1.760869565,-0.6654697786,10.28845003,0.06941950928,3,0.004662004662,214500,-0.7022900763,1.72519084,-0.7022900763,-0.9490254873,0.700149925,1.574212894,1503.296703
806614.8682,1.380434783,10.79347826,1.782608696,-0.6702573309,10.29802513,0.05026929982,3,0.005106005106,195847.8261,-0.9160305344,1.633587786,-0.8702290076,-0.9490254873,0.700149925,1.574212894,1498.168498
806619.812,1.358695652,10.79347826,1.77173913,-0.6798324357,10.28605625,0.06702573309,3,0.005106005106,195847.8261,-1.038167939,1.435114504,-0.7175572519,-0.952023988,0.6971514243,1.574212894,1493.040293
806624.7559,1.369565217,10.80434783,1.782608696,-0.6535008977,10.25014961,0.06223818073,3,0.004662004662,214500,-1.06870229,1.557251908,-0.8091603053,-0.952023988,0.6971514243,1.574212894,1495.970696
806629.6997,1.369565217,10.79347826,1.760869565,-0.6511071215,10.24536206,0.06463195691,3,0.004662004662,214500,-1.496183206,1.694656489,-0.7328244275,-0.9535232384,0.7151424288,1.577211394,1498.168498
806634.6436,1.369565217,10.81521739,1.77173913,-0.6343506882,10.25733094,0.05984440455,3,0.004662004662,214500,-1.450381679,1.755725191,-0.7786259542,-0.9535232384,0.7151424288,1.577211394,1496.703297
806639.5874,1.369565217,10.81521739,1.77173913,-0.6630760024,10.26211849,0.078994614,3,0.004662004662,214500,-0.9465648855,2.091603053,-0.5648854962,-0.9415292354,0.7031484258,1.572713643,1497.435897
806644.5313,1.402173913,10.83695652,1.77173913,-0.6822262118,10.28605625,0.1077199282,3,0.004662004662,214500,-0.7022900763,2.458015267,-0.9770992366,-0.9415292354,0.7031484258,1.572713643,1497.435897
806649.4751,1.413043478,10.82608696,1.782608696,-0.6391382406,10.29084381,0.078994614,3,0.005106005106,195847.8261,-0.6564885496,2.229007634,-0.7480916031,-0.9550224888,0.712143928,1.572713643,1495.238095
806654.4189,1.391304348,10.83695652,1.77173913,-0.6080191502,10.27408737,0.09575104728,3,0.004662004662,214500,-0.4427480916,2.015267176,-0.7633587786,-0.9550224888,0.712143928,1.572713643,1494.505495
806659.3628,1.391304348,10.82608696,1.760869565,-0.6032315978,10.25493716,0.1005385996,3,0.005106005106,195847.8261,-0.3816793893,1.572519084,-0.7175572519,-0.940029985,0.6941529235,1.578710645,1499.6337
806664.3066,1.402173913,10.80434783,1.77173913,-0.6367444644,10.29323758,0.13165769,3,0.005106005106,195847.8261,-0.6259541985,1.664122137,-0.7480916031,-0.940029985,0.6941529235,1.578710645,1495.970696
806669.2505,1.402173913,10.80434783,1.760869565,-0.6391382406,10.25733094,0.105326152,3,0.004662004662,214500,-0.5954198473,1.58778626,-0.6564885496,-0.9445277361,0.7076461769,1.575712144,1501.098901
806674.1943,1.369565217,10.80434783,1.77173913,-0.6343506882,10.28605625,0.078994614,3,0.004662004662,214500,-0.5190839695,1.832061069,-0.7022900763,-0.9445277361,0.7076461769,1.575712144,1496.703297
806679.1382,1.369565217,10.79347826,1.760869565,-0.605625374,10.2716936,0.1149012567,3,0.004662004662,214500,-0.6259541985,1.541984733,-0.7786259542,-0.9535232384,0.7151424288,1.581709145,1499.6337
806684.082,1.391304348,10.80434783,1.760869565,-0.6415320168,10.27887493,0.08378216637,3,0.005106005106,195847.8261,-0.1832061069,1.679389313,-0.7175572519,-0.9535232384,0.7151424288,1.581709145,1501.098901
806689.0259,1.358695652,10.81521739,1.77173913,-0.6511071215,10.27648115,0.1101137044,3,0.005106005106,195847.8261,-0.03053435115,2.351145038,-0.6717557252,-0.9475262369,0.712143928,1.572713643,1498.168498
806693.9697,1.369565217,10.81521739,1.782608696,-0.6439257929,10.27408737,0.1436265709,3,0.004662004662,214500,-0.2442748092,2.015267176,-0.7633587786,-0.9475262369,0.712143928,1.572713643,1495.238095
806698.9136,1.347826087,10.80434783,1.77173913,-0.6463195691,10.28605625,0.1125074806,3,0.005106005106,195847.8261,-0.2900763359,2.305343511,-0.8549618321,-0.940029985,0.7046476762,1.578710645,1494.505495
806703.8574,1.369565217,10.79347826,1.782608696,-0.6343506882,10.2309994,0.105326152,3,0.005106005106,195847.8261,-0.03053435115,1.954198473,-0.641221374,-0.940029985,0.7046476762,1.578710645,1494.505495
806708.8013,1.347826087,10.80434783,1.77173913,-0.6678635548,10.28845003,0.105326152,3,0.005106005106,195847.8261,-0.3053435115,1.770992366,-0.8854961832,-0.9445277361,0.7106446777,1.578710645,1494.505495
806713.7451,1.347826087,10.79347826,1.760869565,-0.6415320168,10.27648115,0.1005385996,3,0.004662004662,214500,-0.4427480916,1.709923664,-0.534351145,-0.9445277361,0.7106446777,1.578710645,1501.098901
806718.689,1.358695652,10.80434783,1.793478261,-0.6630760024,10.29563136,0.105326152,3,0.005106005106,195847.8261,-0.6717557252,1.770992366,-0.6564885496,-0.9445277361,0.7106446777,1.578710645,1490.842491
806721.1609,1.391304348,10.80434783,1.782608696,-0.6630760024,10.23818073,0.07181328546,3,0.005106005106,195847.8261,-0.6259541985,1.709923664,-0.641221374,-0.9460269865,0.7136431784,1.575712144,1492.307692
806726.1047,1.347826087,10.80434783,1.782608696,-0.6965888689,10.28366248,0.07420706164,3,0.004662004662,214500,-0.8854961832,1.679389313,-0.5496183206,-0.9460269865,0.7136431784,1.575712144,1490.842491
806731.0486,1.347826087,10.81521739,1.760869565,-0.6702573309,10.32435667,0.105326152,3,0.005106005106,195847.8261,-0.7938931298,2.396946565,-0.5038167939,-0.9430284858,0.7046476762,1.577211394,1501.098901
806735.9924,1.380434783,10.80434783,1.782608696,-0.7468581688,10.21424297,0.01196888091,3,0.005106005106,195847.8261,-0.5801526718,1.038167939,-0.641221374,-0.9430284858,0.7046476762,1.577211394,1493.040293
806740.9363,1.347826087,10.81521739,1.760869565,-0.6558946738,10.28605625,0.09814482346,3,0.004662004662,214500,-0.6717557252,2.564885496,-0.3969465649,-0.9475262369,0.7091454273,1.572713643,1501.831502
806745.8801,1.358695652,10.82608696,1.793478261,-0.6630760024,10.28845003,0.2321962896,3,0.004662004662,214500,-0.427480916,2.885496183,-0.534351145,-0.9475262369,0.7091454273,1.572713643,1493.772894
806750.824,1.369565217,10.80434783,1.782608696,-0.6702573309,10.29084381,0.2130460802,3,0.005106005106,195847.8261,-0.6259541985,2.93129771,-0.2900763359,-0.9475262369,0.6971514243,1.577211394,1493.040293
806755.7678,1.358695652,10.82608696,1.75,-0.6702573309,10.30281269,0.02393776182,3,0.005106005106,195847.8261,-0.3358778626,2.41221374,-0.1374045802,-0.9475262369,0.6971514243,1.577211394,1495.238095
806760.7117,1.380434783,10.82608696,1.75,-0.6104129264,10.27648115,0.05984440455,3,0.005106005106,195847.8261,-0.1984732824,2.671755725,-0.4427480916,-0.952023988,0.7061469265,1.577211394,1496.703297
806765.6555,1.402173913,10.82608696,1.782608696,-0.5984440455,10.28845003,0.06702573309,3,0.004662004662,214500,-0.534351145,2.717557252,-0.427480916,-0.952023988,0.7061469265,1.577211394,1497.435897
806770.5994,1.413043478,10.81521739,1.77173913,-0.6152004788,10.24775583,0.1005385996,3,0.004662004662,214500,-0.6564885496,2.229007634,-0.1984732824,-0.9535232384,0.7076461769,1.572713643,1495.238095
806775.5432,1.391304348,10.80434783,1.782608696,-0.5673249551,10.31238779,0.1675643327,3,0.005106005106,195847.8261,-0.3664122137,1.969465649,-0.4732824427,-0.9535232384,0.7076461769,1.572713643,1493.772894
806780.4871,1.358695652,10.79347826,1.739130435,-0.6774386595,10.24296828,0.03111909037,3,0.004662004662,214500,-0.3358778626,1.847328244,-0.7786259542,-0.9460269865,0.7091454273,1.565217391,1500.3663
806785.4309,1.380434783,10.81521739,1.793478261,-0.6247755835,10.26451227,0.13165769,3,0.004662004662,214500,-0.3969465649,2.305343511,-0.7480916031,-0.9460269865,0.7091454273,1.565217391,1491.575092
806790.3748,1.380434783,10.81521739,1.782608696,-0.6487133453,10.29084381,0.1244763615,3,0.004662004662,214500,-0.03053435115,1.893129771,-0.4885496183,-0.9460269865,0.7061469265,1.565217391,1493.040293
806795.3186,1.380434783,10.80434783,1.793478261,-0.6175942549,10.25014961,0.08617594255,3,0.004662004662,214500,0.01526717557,1.374045802,-0.5190839695,-0.9460269865,0.7061469265,1.565217391,1489.377289
806800.2625,1.380434783,10.82608696,1.782608696,-0.6367444644,10.25014961,0.1292639138,3,0.005106005106,195847.8261,-0.01526717557,1.267175573,-0.6564885496,-0.9415292354,0.6971514243,1.574212894,1494.505495
806805.2063,1.391304348,10.81521739,1.815217391,-0.6487133453,10.2716936,0.1244763615,3,0.004662004662,214500,-0.2595419847,0.2900763359,-0.5038167939,-0.9415292354,0.6971514243,1.574212894,1487.912088
806810.1501,1.391304348,10.80434783,1.782608696,-0.6558946738,10.27887493,0.07660083782,3,0.005106005106,195847.8261,-0.2290076336,0.3358778626,-0.7633587786,-0.9445277361,0.7016491754,1.569715142,1491.575092
806815.094,1.380434783,10.80434783,1.77173913,-0.6511071215,10.2812687,0.1388390186,3,0.004662004662,214500,-0.3511450382,0.320610687,-0.6106870229,-0.9445277361,0.7016491754,1.569715142,1494.505495
806820.0378,1.369565217,10.82608696,1.760869565,-0.6343506882,10.30041891,0.07660083782,3,0.004662004662,214500,-0.1526717557,0.106870229,-0.6564885496,-0.9490254873,0.6971514243,1.568215892,1501.098901
806824.9817,1.358695652,10.81521739,1.75,-0.6271693597,10.2716936,0.1125074806,3,0.004662004662,214500,-0.4885496183,0.3969465649,-0.9007633588,-0.9490254873,0.6971514243,1.568215892,1498.168498
806829.9255,1.358695652,10.80434783,1.782608696,-0.5960502693,10.26211849,0.08856971873,3,0.004662004662,214500,-0.09160305344,0.3816793893,-0.6106870229,-0.9505247376,0.7076461769,1.569715142,1495.970696
806834.8694,1.380434783,10.81521739,1.782608696,-0.6439257929,10.28845003,0.1101137044,3,0.005106005106,195847.8261,-0.4122137405,0.3358778626,-0.7022900763,-0.9505247376,0.7076461769,1.569715142,1494.505495
806839.8132,1.380434783,10.82608696,1.760869565,-0.6391382406,10.26929982,0.1125074806,3,0.005106005106,195847.8261,-0.427480916,0.3511450382,-0.6259541985,-0.9505247376,0.700149925,1.568215892,1498.168498
806844.7571,1.358695652,10.82608696,1.75,-0.6678635548,10.27408737,0.13165769,3,0.005106005106,195847.8261,-0.3969465649,0.7480916031,-0.7022900763,-0.9505247376,0.700149925,1.568215892,1498.168498
806849.7009,1.369565217,10.82608696,1.739130435,-0.5745062837,10.29084381,0.1986834231,3,0.004662004662,214500,-0.6564885496,1.267175573,-0.7328244275,-0.9415292354,0.712143928,1.569715142,1501.831502
806854.6448,1.391304348,10.81521739,1.760869565,-0.6726511071,10.24775583,0.07181328546,3,0.005106005106,195847.8261,-0.4122137405,1.114503817,-0.6717557252,-0.9415292354,0.712143928,1.569715142,1501.098901
806859.5886,1.380434783,10.81521739,1.760869565,-0.6439257929,10.26211849,0.03830041891,3,0.004662004662,214500,-0.3358778626,1.450381679,-0.4580152672,-0.952023988,0.7046476762,1.566716642,1503.296703
806864.5325,1.369565217,10.81521739,1.760869565,-0.6295631358,10.31717534,0.1172950329,3,0.004662004662,214500,-0.5190839695,1.374045802,-0.4885496183,-0.952023988,0.7046476762,1.566716642,1503.296703
806869.4763,1.347826087,10.82608696,1.760869565,-0.6271693597,10.32435667,0.1172950329,3,0.004662004662,214500,-0.4580152672,1.053435115,-0.4427480916,-0.9505247376,0.7046476762,1.578710645,1501.831502
806874.4202,1.369565217,10.80434783,1.815217391,-0.6223818073,10.23578695,0.1292639138,3,0.005106005106,195847.8261,-0.7022900763,0.6870229008,-0.6717557252,-0.9505247376,0.7046476762,1.578710645,1490.10989
806879.364,1.380434783,10.80434783,1.782608696,-0.6535008977,10.30281269,0.08856971873,3,0.004662004662,214500,-0.3816793893,0.4122137405,-0.9007633588,-0.9445277361,0.7061469265,1.565217391,1490.842491
806884.3079,1.402173913,10.80434783,1.77173913,-0.6343506882,10.29323758,0.07420706164,3,0.005106005106,195847.8261,-0.2442748092,0.5038167939,-0.7938931298,-0.9445277361,0.7061469265,1.565217391,1493.772894
806889.2517,1.391304348,10.81521739,1.77173913,-0.605625374,10.26929982,0.04308797127,3,0.004662004662,214500,-0.04580152672,0.2442748092,-0.8549618321,-0.9550224888,0.6986506747,1.574212894,1496.703297
806894.1956,1.402173913,10.82608696,1.760869565,-0.6630760024,10.30999402,0.08138839019,3,0.005106005106,195847.8261,-0.06106870229,0.427480916,-0.9770992366,-0.9550224888,0.6986506747,1.574212894,1501.831502
806899.1394,1.402173913,10.82608696,1.760869565,-0.6223818073,10.26690604,0.1029323758,3,0.004662004662,214500,0.1832061069,0.9618320611,-1.083969466,-0.9505247376,0.7181409295,1.575712144,1503.296703
806904.0833,1.413043478,10.83695652,1.77173913,-0.6032315978,10.29563136,0.1244763615,3,0.005106005106,195847.8261,-0.04580152672,0.4122137405,-1.053435115,-0.9505247376,0.7181409295,1.575712144,1498.168498
806909.0271,1.402173913,10.80434783,1.75,-0.6989826451,10.25972472,-0.04308797127,3,0.004662004662,214500,0.09160305344,0.2748091603,-1.160305344,-0.9445277361,0.7016491754,1.566716642,1497.435897
806913.9709,1.413043478,10.80434783,1.793478261,-0.6702573309,10.26929982,0.05505685218,3,0.004662004662,214500,0.2900763359,-1.435114504,-1.083969466,-0.9445277361,0.7016491754,1.566716642,1489.377289
806918.9148,1.391304348,10.81521739,1.793478261,-0.5840813884,10.29084381,0.06941950928,3,0.004662004662,214500,0.1984732824,-1.618320611,-1.709923664,-0.9535232384,0.6971514243,1.574212894,1484.981685
806923.8586,1.391304348,10.81521739,1.782608696,-0.6008378217,10.30041891,0.1340514662,3,0.004662004662,214500,-0.03053435115,-1.404580153,-1.633587786,-0.9535232384,0.6971514243,1.574212894,1490.842491
806928.8025,1.391304348,10.81521739,1.739130435,-0.6415320168,10.25972472,0.06941950928,3,0.004662004662,214500,0.3511450382,-0.5648854962,-1.709923664,-0.9415292354,0.7106446777,1.578710645,1501.831502
806933.7463,1.369565217,10.81521739,1.760869565,-0.6726511071,10.28605625,0.08856971873,3,0.004662004662,214500,-0.06106870229,-0.5954198473,-1.435114504,-0.9415292354,0.7106446777,1.578710645,1501.098901
806938.6902,1.369565217,10.80434783,1.760869565,-0.6702573309,10.23818073,0.09096349491,3,0.004662004662,214500,-0.1832061069,-0.2595419847,-1.312977099,-0.9460269865,0.7166416792,1.580209895,1503.296703
806943.634,1.369565217,10.81521739,1.760869565,-0.6343506882,10.26451227,0.1388390186,3,0.005106005106,195847.8261,-0.1832061069,-0.106870229,-1.419847328,-0.9460269865,0.7166416792,1.580209895,1503.296703
806948.5779,1.380434783,10.83695652,1.782608696,-0.6128067026,10.29563136,0.02872531418,3,0.005106005106,195847.8261,-0.5038167939,-1.06870229,-1.282442748,-0.9505247376,0.7106446777,1.577211394,1496.703297
806953.5217,1.391304348,10.82608696,1.760869565,-0.631956912,10.29563136,0.01675643327,3,0.005106005106,195847.8261,-0.2442748092,-0.7175572519,-1.526717557,-0.9505247376,0.7106446777,1.577211394,1498.901099
806958.4656,1.369565217,10.82608696,1.77173913,-0.6439257929,10.26690604,0.07181328546,3,0.004662004662,214500,-0.4732824427,-1.007633588,-1.160305344,-0.952023988,0.7076461769,1.574212894,1496.703297
806963.4094,1.369565217,10.81521739,1.75,-0.6965888689,10.2716936,0.1101137044,3,0.005106005106,195847.8261,0.106870229,-0.8854961832,-1.312977099,-0.952023988,0.7076461769,1.574212894,1498.901099
806968.3533,1.347826087,10.81521739,1.782608696,-0.6654697786,10.3219629,0.1101137044,3,0.004662004662,214500,0.09160305344,-0.6106870229,-1.053435115,-0.952023988,0.7106446777,1.584707646,1495.238095
806973.2971,1.358695652,10.80434783,1.760869565,-0.6678635548,10.26211849,0.1029323758,3,0.005106005106,195847.8261,-0.213740458,-0.4427480916,-1.083969466,-0.952023988,0.7106446777,1.584707646,1499.6337
806978.241,1.380434783,10.81521739,1.760869565,-0.6415320168,10.29084381,0.1149012567,3,0.004662004662,214500,-0.1679389313,-1.099236641,-1.251908397,-0.9475262369,0.7151424288,1.581709145,1500.3663
806983.1848,1.358695652,10.81521739,1.77173913,-0.6606822262,10.27408737,0.09814482346,3,0.004662004662,214500,0.06106870229,-0.9007633588,-1.221374046,-0.9475262369,0.7151424288,1.581709145,1498.168498
806988.1287,1.369565217,10.81521739,1.793478261,-0.6822262118,10.26690604,0.07420706164,3,0.004662004662,214500,-0.04580152672,-0.8244274809,-1.34351145,-0.9430284858,0.7076461769,1.574212894,1487.912088
806993.0725,1.358695652,10.81521739,1.77173913,-0.6487133453,10.23339318,0.07181328546,3,0.004662004662,214500,0.03053435115,-0.9465648855,-1.282442748,-0.9430284858,0.7076461769,1.574212894,1493.040293
806998.0164,1.336956522,10.80434783,1.760869565,-0.7205266308,10.26451227,0.08378216637,3,0.005106005106,195847.8261,0.106870229,-0.6106870229,-1.022900763,-0.952023988,0.7046476762,1.578710645,1498.168498
807002.9602,1.336956522,10.81521739,1.739130435,-0.6750448833,10.30520646,0.09096349491,3,0.005106005106,195847.8261,0.01526717557,-0.106870229,-1.099236641,-0.952023988,0.7046476762,1.578710645,1501.831502
807007.9041,1.358695652,10.80434783,1.77173913,-0.6558946738,10.26929982,0.052663076,3,0.004662004662,214500,-0.03053435115,0.07633587786,-1.099236641,-0.9550224888,0.7151424288,1.578710645,1498.901099
807012.8479,1.380434783,10.81521739,1.77173913,-0.6391382406,10.28845003,0.0933572711,3,0.004662004662,214500,-0.1374045802,0.3969465649,-0.7022900763,-0.9550224888,0.7151424288,1.578710645,1495.970696
807017.7917,1.380434783,10.81521739,1.75,-0.6678635548,10.27887493,0.06702573309,3,0.005106005106,195847.8261,-0.5038167939,0.6717557252,-0.7786259542,-0.9505247376,0.712143928,1.578710645,1498.901099
807022.7356,1.369565217,10.80434783,1.739130435,-0.6511071215,10.29323758,0.04787552364,3,0.004662004662,214500,0,0.8091603053,-0.9923664122,-0.9505247376,0.712143928,1.578710645,1501.831502
807027.6794,1.380434783,10.81521739,1.75,-0.6535008977,10.2716936,0.08617594255,3,0.004662004662,214500,-0.2900763359,1.083969466,-0.8854961832,-0.9445277361,0.7031484258,1.577211394,1500.3663
807032.6233,1.380434783,10.80434783,1.739130435,-0.6630760024,10.27887493,0.09575104728,3,0.004662004662,214500,-0.1526717557,1.099236641,-1.083969466,-0.9445277361,0.7031484258,1.577211394,1504.761905
807037.5671,1.391304348,10.81521739,1.782608696,-0.6535008977,10.24775583,0.03590664273,3,0.004662004662,214500,-0.427480916,1.20610687,-0.9923664122,-0.9505247376,0.7016491754,1.584707646,1496.703297
807042.511,1.391304348,10.80434783,1.760869565,-0.6391382406,10.2812687,0.1077199282,3,0.004662004662,214500,-0.2595419847,1.175572519,-0.7328244275,-0.9505247376,0.7016491754,1.584707646,1500.3663
807047.4548,1.369565217,10.79347826,1.77173913,-0.6606822262,10.27408737,0.05984440455,3,0.004662004662,214500,-0.3969465649,0.7938931298,-0.9923664122,-0.952023988,0.7181409295,1.580209895,1498.901099
807052.3987,1.326086957,10.80434783,1.760869565,-0.631956912,10.28845003,0.026331538,3,0.004662004662,214500,-0.534351145,1.038167939,-0.9923664122,-0.952023988,0.7181409295,1.580209895,1500.3663
807057.3425,1.358695652,10.82608696,1.760869565,-0.6175942549,10.28605625,0.03111909037,3,0.005106005106,195847.8261,-0.534351145,1.160305344,-0.7786259542,-0.952023988,0.7106446777,1.581709145,1501.098901
807062.2864,1.369565217,10.80434783,1.77173913,-0.6152004788,10.28605625,0.1125074806,3,0.004662004662,214500,-0.5496183206,1.419847328,-0.9312977099,-0.952023988,0.7106446777,1.581709145,1498.901099
807067.2302,1.391304348,10.81521739,1.75,-0.4811490126,10.28845003,0.05745062837,3,0.004662004662,214500,-0.5190839695,1.267175573,-0.9007633588,-0.952023988,0.7106446777,1.581709145,1497.435897
807069.7021,1.391304348,10.81521739,1.72826087,-0.6726511071,10.28605625,0.07420706164,3,0.005106005106,195847.8261,-0.5496183206,1.435114504,-0.8854961832,-0.9475262369,0.7106446777,1.577211394,1502.564103
807074.646,1.369565217,10.80434783,1.75,-0.6439257929,10.32675045,0.06702573309,3,0.004662004662,214500,-0.5038167939,1.633587786,-0.8549618321,-0.9475262369,0.7106446777,1.577211394,1500.3663
807079.5898,1.358695652,10.82608696,1.782608696,-0.6535008977,10.26690604,0.1292639138,3,0.004662004662,214500,-0.3969465649,1.099236641,-0.8244274809,-0.9535232384,0.7136431784,1.577211394,1495.970696
807084.5337,1.380434783,10.81521739,1.77173913,-0.6415320168,10.30041891,0.06702573309,3,0.004662004662,214500,-0.5038167939,0.5954198473,-1.022900763,-0.9535232384,0.7136431784,1.577211394,1494.505495
807089.4775,1.391304348,10.80434783,1.75,-0.6128067026,10.28845003,0.06223818073,3,0.004662004662,214500,-0.427480916,0.106870229,-0.9007633588,-0.952023988,0.7166416792,1.580209895,1496.703297
807094.4214,1.358695652,10.81521739,1.75,-0.6774386595,10.29084381,0.02872531418,3,0.004662004662,214500,-0.2748091603,0.1679389313,-1.022900763,-0.952023988,0.7166416792,1.580209895,1497.435897
807099.3652,1.391304348,10.80434783,1.77173913,-0.6487133453,10.2812687,0.02393776182,3,0.004662004662,214500,-0.4122137405,-0.1221374046,-0.9007633588,-0.952023988,0.7031484258,1.577211394,1496.703297
807104.3091,1.336956522,10.81521739,1.717391304,-0.6989826451,10.26211849,0.02154398564,3,0.004662004662,214500,-0.06106870229,0.9312977099,-0.8702290076,-0.952023988,0.7031484258,1.577211394,1506.227106
807109.2529,1.380434783,10.81521739,1.782608696,-0.6487133453,10.26211849,0.1149012567,3,0.004662004662,214500,-0.4427480916,0.9465648855,-0.7022900763,-0.9490254873,0.7136431784,1.578710645,1497.435897
807114.1968,1.369565217,10.80434783,1.72826087,-0.6965888689,10.29802513,0.02393776182,3,0.004662004662,214500,-0.09160305344,1.312977099,-0.8854961832,-0.9490254873,0.7136431784,1.578710645,1504.029304
807119.1406,1.358695652,10.80434783,1.77173913,-0.6822262118,10.29084381,0.1149012567,3,0.004662004662,214500,-0.6564885496,1.328244275,-0.7633587786,-0.9475262369,0.7076461769,1.569715142,1500.3663
807124.0845,1.358695652,10.81521739,1.77173913,-0.6630760024,10.29084381,0.05984440455,3,0.005106005106,195847.8261,-0.213740458,1.312977099,-0.5648854962,-0.9475262369,0.7076461769,1.569715142,1496.703297
807129.0283,1.369565217,10.79347826,1.77173913,-0.6175942549,10.26690604,0.1172950329,3,0.004662004662,214500,-0.7328244275,1.541984733,-0.8244274809,-0.9430284858,0.7046476762,1.571214393,1498.168498
807133.9722,1.369565217,10.80434783,1.77173913,-0.6630760024,10.29084381,0.05984440455,3,0.005106005106,195847.8261,-0.320610687,1.236641221,-0.8854961832,-0.9430284858,0.7046476762,1.571214393,1493.040293
807138.916,1.358695652,10.80434783,1.760869565,-0.6367444644,10.28605625,0.08378216637,3,0.004662004662,214500,-0.7022900763,1.083969466,-0.5038167939,-0.9475262369,0.7271364318,1.584707646,1500.3663
807143.8599,1.380434783,10.81521739,1.75,-0.6271693597,10.26211849,0.08378216637,3,0.004662004662,214500,-0.4427480916,1.267175573,-0.6717557252,-0.9475262369,0.7271364318,1.584707646,1498.901099
807148.8037,1.369565217,10.80434783,1.75,-0.6032315978,10.31478157,0.06223818073,3,0.005106005106,195847.8261,-0.4427480916,1.496183206,-0.8854961832,-0.9505247376,0.6986506747,1.572713643,1498.168498
807153.7476,1.380434783,10.82608696,1.760869565,-0.6295631358,10.26451227,0.08138839019,3,0.005106005106,195847.8261,-0.2595419847,1.114503817,-0.7328244275,-0.9505247376,0.6986506747,1.572713643,1500.3663
807158.6914,1.380434783,10.82608696,1.77173913,-0.6463195691,10.27887493,0.06463195691,3,0.005106005106,195847.8261,-0.3053435115,0.7175572519,-0.7022900763,-0.9430284858,0.7076461769,1.574212894,1496.703297
807163.6353,1.369565217,10.81521739,1.760869565,-0.6343506882,10.29323758,0.04548174746,3,0.004662004662,214500,-0.6259541985,1.160305344,-0.641221374,-0.9430284858,0.7076461769,1.574212894,1501.831502
807168.5791,1.358695652,10.81521739,1.72826087,-0.6726511071,10.30999402,0.05984440455,3,0.005106005106,195847.8261,-0.4427480916,1.190839695,-0.7022900763,-0.9460269865,0.6926536732,1.575712144,1503.296703
807173.5229,1.358695652,10.81521739,1.717391304,-0.631956912,10.27648115,0.06223818073,3,0.005106005106,195847.8261,-0.641221374,1.541984733,-0.6564885496,-0.9460269865,0.6926536732,1.575712144,1512.820513
807178.4668,1.358695652,10.81521739,1.760869565,-0.6415320168,10.2812687,0.105326152,3,0.004662004662,214500,-0.4732824427,1.511450382,-0.7175572519,-0.9460269865,0.700149925,1.580209895,1504.761905
807183.4106,1.380434783,10.82608696,1.75,-0.6271693597,10.28845003,0.1101137044,3,0.004662004662,214500,-0.2442748092,1.419847328,-0.8396946565,-0.9460269865,0.700149925,1.580209895,1498.901099
807188.3545,1.380434783,10.82608696,1.782608696,-0.6463195691,10.28845003,0.09575104728,3,0.004662004662,214500,-0.3511450382,1.20610687,-1.022900763,-0.9505247376,0.7031484258,1.575712144,1497.435897
807193.2983,1.369565217,10.82608696,1.760869565,-0.6032315978,10.30760024,0.1484141233,3,0.004662004662,214500,-0.5496183206,0.8702290076,-0.7938931298,-0.9505247376,0.7031484258,1.575712144,1501.831502
807198.2422,1.380434783,10.81521739,1.75,-0.6175942549,10.2812687,0.04308797127,3,0.004662004662,214500,-0.1679389313,0.5038167939,-1.175572519,-0.9505247376,0.712143928,1.572713643,1500.3663
807203.186,1.347826087,10.81521739,1.739130435,-0.6247755835,10.30041891,0.06941950928,3,0.004662004662,214500,-0.04580152672,1.083969466,-0.9923664122,-0.9505247376,0.712143928,1.572713643,1504.761905
807208.1299,1.402173913,10.81521739,1.760869565,-0.6295631358,10.31717534,0.07660083782,3,0.004662004662,214500,-0.2900763359,0.9007633588,-1.251908397,-0.9490254873,0.6986506747,1.578710645,1503.296703
807213.0737,1.369565217,10.80434783,1.739130435,-0.6271693597,10.25254339,0.08138839019,3,0.004662004662,214500,-0.2748091603,1.297709924,-0.8244274809,-0.9490254873,0.6986506747,1.578710645,1504.761905
807218.0176,1.369565217,10.79347826,1.793478261,-0.6295631358,10.28845003,0.1651705566,3,0.004662004662,214500,-0.4885496183,1.374045802,-0.7786259542,-0.9460269865,0.7181409295,1.574212894,1495.970696
807222.9614,1.391304348,10.81521739,1.782608696,-0.6104129264,10.28605625,0.04548174746,3,0.004662004662,214500,-0.3511450382,0.5496183206,-1.007633588,-0.9460269865,0.7181409295,1.574212894,1491.575092
807227.9053,1.391304348,10.83695652,1.739130435,-0.5673249551,10.331538,0.05026929982,3,0.004662004662,214500,-0.4580152672,0.534351145,-1.160305344,-0.9505247376,0.6971514243,1.568215892,1502.564103
807232.8491,1.391304348,10.82608696,1.760869565,-0.65828845,10.27648115,0.1029323758,3,0.004662004662,214500,0,0.2442748092,-1.297709924,-0.9505247376,0.6971514243,1.568215892,1501.831502
807237.793,1.391304348,10.81521739,1.75,-0.6463195691,10.2812687,0.01915020946,3,0.004662004662,214500,-0.1374045802,0.7633587786,-1.389312977,-0.9430284858,0.7031484258,1.580209895,1500.3663
807242.7368,1.391304348,10.83695652,1.760869565,-0.6463195691,10.35308199,0.1292639138,3,0.004662004662,214500,-0.1679389313,0.3358778626,-1.496183206,-0.9430284858,0.7031484258,1.580209895,1504.029304
807247.6807,1.413043478,10.7173913,1.717391304,-0.684619988,10.25014961,-0.05505685218,3,0.004662004662,214500,0.2748091603,-0.9618320611,-1.328244275,-0.9430284858,0.7091454273,1.578710645,1504.761905
807252.6245,1.326086957,10.7826087,1.695652174,-0.5673249551,10.30760024,0.2010771993,3,0.004662004662,214500,-0.7022900763,1.877862595,-1.465648855,-0.9430284858,0.7091454273,1.578710645,1517.948718
807257.5684,1.369565217,10.80434783,1.77173913,-0.6415320168,10.24775583,0.1292639138,3,0.004662004662,214500,-0.7938931298,0.04580152672,-1.541984733,-0.9385307346,0.6986506747,1.578710645,1500.3663
807262.5122,1.347826087,10.81521739,1.739130435,-0.6630760024,10.33871933,0.052663076,3,0.005106005106,195847.8261,-0.5190839695,-0.1832061069,-1.312977099,-0.9385307346,0.6986506747,1.578710645,1504.761905
807267.4561,1.336956522,10.80434783,1.717391304,-0.631956912,10.25493716,0.1101137044,3,0.004662004662,214500,-0.2290076336,0.8396946565,-1.34351145,-0.940029985,0.7016491754,1.577211394,1513.553114
807272.3999,1.391304348,10.81521739,1.793478261,-0.6702573309,10.29563136,0.02872531418,3,0.005106005106,195847.8261,-0.534351145,0.01526717557,-1.297709924,-0.940029985,0.7016491754,1.577211394,1494.505495
807277.3438,1.304347826,10.70652174,1.793478261,-0.4859365649,10.71214841,-0.4284859366,3,0.005106005106,195847.8261,-1.190839695,1.389312977,-1.145038168,-0.9475262369,0.7031484258,1.572713643,1487.179487
807282.2876,1.380434783,10.81521739,1.72826087,-0.6343506882,10.14721724,-0.01675643327,3,0.004662004662,214500,-0.427480916,0.5648854962,-1.083969466,-0.9475262369,0.7031484258,1.572713643,1502.564103
807287.2314,1.358695652,10.7826087,1.760869565,-0.6487133453,10.21663674,0.09814482346,3,0.005106005106,195847.8261,-0.4427480916,0.1832061069,-1.007633588,-0.9475262369,0.6971514243,1.581709145,1501.098901
807292.1753,1.358695652,10.81521739,1.75,-0.6343506882,10.25254339,-0.026331538,3,0.004662004662,214500,-0.5801526718,-0.2595419847,-0.8854961832,-0.9475262369,0.6971514243,1.581709145,1497.435897
807297.1191,1.347826087,10.81521739,1.760869565,-0.6798324357,10.26211849,0.04308797127,3,0.004662004662,214500,-0.7022900763,0.3816793893,-0.9312977099,-0.9475262369,0.700149925,1.574212894,1500.3663
807302.063,1.369565217,10.81521739,1.760869565,-0.6487133453,10.27648115,0.026331538,3,0.004662004662,214500,-0.4122137405,0.01526717557,-1.038167939,-0.9475262369,0.700149925,1.574212894,1503.296703
807307.0068,1.304347826,10.79347826,1.75,-0.6894075404,10.24536206,0.1149012567,3,0.004662004662,214500,-0.4580152672,0.5648854962,-0.8854961832,-0.9460269865,0.7076461769,1.580209895,1498.168498
807311.9507,1.336956522,10.80434783,1.77173913,-0.6726511071,10.2716936,0.09096349491,3,0.004662004662,214500,-0.7022900763,0.9007633588,-0.9007633588,-0.9460269865,0.7076461769,1.580209895,1495.970696
807316.8945,1.347826087,10.80434783,1.760869565,-0.6894075404,10.26451227,0.03830041891,3,0.004662004662,214500,-0.5954198473,1.572519084,-0.6717557252,-0.9445277361,0.7076461769,1.578710645,1499.6337
807321.8384,1.336956522,10.83695652,1.760869565,-0.6894075404,10.29084381,0.08138839019,3,0.004662004662,214500,-0.6259541985,1.72519084,-0.7480916031,-0.9445277361,0.7076461769,1.578710645,1501.831502
807326.7822,1.336956522,10.81521739,1.75,-0.7061639737,10.26690604,0.1029323758,3,0.004662004662,214500,-0.7633587786,2.183206107,-0.8549618321,-0.9595202399,0.7046476762,1.577211394,1498.901099
807331.7261,1.347826087,10.80434783,1.75,-0.6247755835,10.29323758,0.08856971873,3,0.004662004662,214500,-0.7786259542,2.366412214,-0.6717557252,-0.9595202399,0.7046476762,1.577211394,1499.6337
807336.6699,1.369565217,10.80434783,1.739130435,-0.6678635548,10.2812687,0.1029323758,3,0.005106005106,195847.8261,-0.9160305344,2.610687023,-0.5038167939,-0.9430284858,0.7046476762,1.581709145,1501.831502
807341.6138,1.369565217,10.81521739,1.77173913,-0.6606822262,10.2716936,0.078994614,3,0.004662004662,214500,-0.8549618321,2.763358779,-0.7480916031,-0.9430284858,0.7046476762,1.581709145,1498.901099
807346.5576,1.369565217,10.84782609,1.77173913,-0.631956912,10.27648115,0.052663076,3,0.004662004662,214500,-0.9160305344,2.854961832,-0.7175572519,-0.9445277361,0.7061469265,1.578710645,1498.168498
807351.5015,1.369565217,10.81521739,1.77173913,-0.6726511071,10.30520646,0.09096349491,3,0.004662004662,214500,-0.7786259542,2.732824427,-0.7328244275,-0.9445277361,0.7061469265,1.578710645,1496.703297
807356.4453,1.369565217,10.83695652,1.77173913,-0.6487133453,10.30760024,0.1244763615,3,0.004662004662,214500,-0.4885496183,2.534351145,-0.7480916031,-0.9460269865,0.7151424288,1.581709145,1495.238095
807361.3892,1.347826087,10.91304348,1.72826087,-0.5769000598,10.43925793,-0.03590664273,3,0.004662004662,214500,-0.6870229008,3.114503817,-0.9618320611,-0.9460269865,0.7151424288,1.581709145,1502.564103
807366.333,1.347826087,10.76086957,1.72826087,-0.8282465589,10.20945542,0.06941950928,3,0.004662004662,214500,-0.6106870229,3.435114504,-0.7938931298,-0.9475262369,0.7061469265,1.581709145,1509.157509
807371.2769,1.369565217,10.80434783,1.804347826,-0.5385996409,10.2812687,0.1172950329,3,0.004662004662,214500,-1.114503817,4.427480916,-0.8854961832,-0.9475262369,0.7061469265,1.581709145,1498.168498
807376.2207,1.423913043,10.84782609,1.782608696,-0.605625374,10.32435667,0.052663076,3,0.005106005106,195847.8261,-0.5648854962,1.832061069,-0.9923664122,-0.9475262369,0.7136431784,1.578710645,1492.307692
807381.1646,1.358695652,10.83695652,1.673913043,-0.6918013166,10.27648115,0.04548174746,3,0.004662004662,214500,-0.6259541985,2.885496183,-1.06870229,-0.9475262369,0.7136431784,1.578710645,1516.483516
807386.1084,1.402173913,10.81521739,1.739130435,-0.6271693597,10.30760024,0.2393776182,3,0.005106005106,195847.8261,-0.5648854962,3.786259542,-1.190839695,-0.9415292354,0.7091454273,1.584707646,1512.087912
807391.0522,1.413043478,10.83695652,1.77173913,-0.6343506882,10.31238779,0.1460203471,3,0.005106005106,195847.8261,-0.4885496183,1.740458015,-1.175572519,-0.9415292354,0.7091454273,1.584707646,1499.6337
807395.9961,1.369565217,10.83695652,1.739130435,-0.6798324357,10.23578695,0.03830041891,3,0.004662004662,214500,-0.7480916031,2.305343511,-1.007633588,-0.9415292354,0.7091454273,1.584707646,1504.029304
807398.468,1.358695652,10.80434783,1.739130435,-0.6750448833,10.2309994,0.06702573309,3,0.004662004662,214500,-0.6106870229,2.183206107,-1.221374046,-0.9445277361,0.7091454273,1.580209895,1504.761905
807403.4119,1.347826087,10.83695652,1.75,-0.6774386595,10.41292639,0.06941950928,3,0.004662004662,214500,-0.427480916,2.442748092,-1.038167939,-0.9445277361,0.7091454273,1.580209895,1499.6337
807408.3557,1.423913043,10.77173913,1.760869565,-0.6367444644,10.17354877,0.1340514662,3,0.004662004662,214500,-0.4732824427,1.664122137,-1.221374046,-0.9415292354,0.700149925,1.571214393,1501.098901
807413.2996,1.380434783,10.77173913,1.75,-0.6367444644,10.18791143,0.04787552364,3,0.004662004662,214500,-1.312977099,1.984732824,-1.404580153,-0.9415292354,0.700149925,1.571214393,1500.3663
807418.2434,1.347826087,10.7826087,1.793478261,-0.6989826451,10.27408737,0.1149012567,3,0.004662004662,214500,-1.34351145,1.954198473,-0.9312977099,-0.9490254873,0.7016491754,1.580209895,1493.772894
807423.1873,1.336956522,10.81521739,1.77173913,-0.7085577499,10.26451227,0.04548174746,3,0.004662004662,214500,-0.8702290076,2.351145038,-0.9007633588,-0.9490254873,0.7016491754,1.580209895,1493.772894
807428.1311,1.336956522,10.79347826,1.77173913,-0.6463195691,10.26211849,0.1244763615,3,0.004662004662,214500,-1.190839695,2.79389313,-0.8396946565,-0.9430284858,0.7016491754,1.568215892,1495.970696
807433.075,1.336956522,10.81521739,1.760869565,-0.7037701975,10.28845003,0.09814482346,3,0.005106005106,195847.8261,-1.022900763,2.122137405,-0.7633587786,-0.9430284858,0.7016491754,1.568215892,1498.901099
807438.0188,1.336956522,10.79347826,1.72826087,-0.6630760024,10.25972472,0.05026929982,3,0.004662004662,214500,-0.9618320611,2.396946565,-0.5954198473,-0.9475262369,0.7166416792,1.580209895,1504.761905
807442.9626,1.336956522,10.81521739,1.75,-0.6750448833,10.30520646,0.07420706164,3,0.004662004662,214500,-1.06870229,2.854961832,-0.8091603053,-0.9475262369,0.7166416792,1.580209895,1503.296703
807447.9065,1.347826087,10.81521739,1.760869565,-0.6894075404,10.2812687,0.1029323758,3,0.005106005106,195847.8261,-1.20610687,3.312977099,-0.6259541985,-0.9430284858,0.7046476762,1.574212894,1504.029304
807452.8503,1.347826087,10.81521739,1.739130435,-0.6367444644,10.30041891,0.078994614,3,0.004662004662,214500,-1.114503817,2.671755725,-0.5648854962,-0.9430284858,0.7046476762,1.574212894,1503.296703
807457.7942,1.358695652,10.82608696,1.760869565,-0.6463195691,10.30520646,0.06941950928,3,0.004662004662,214500,-1.038167939,2.961832061,-0.6717557252,-0.9490254873,0.7046476762,1.575712144,1504.029304
807462.738,1.347826087,10.83695652,1.75,-0.6199880311,10.29084381,0.06941950928,3,0.004662004662,214500,-0.7480916031,2.427480916,-0.6717557252,-0.9490254873,0.7046476762,1.575712144,1501.098901
807467.6819,1.369565217,10.81521739,1.77173913,-0.6104129264,10.31478157,0.1196888091,3,0.004662004662,214500,-0.7328244275,2.320610687,-0.6717557252,-0.9430284858,0.7196401799,1.571214393,1498.901099
807472.6257,1.391304348,10.81521739,1.760869565,-0.65828845,10.30999402,0.05026929982,3,0.005106005106,195847.8261,-0.8854961832,1.801526718,-0.5190839695,-0.9430284858,0.7196401799,1.571214393,1500.3663
807477.5696,1.380434783,10.81521739,1.75,-0.5960502693,10.30760024,0.09814482346,3,0.005106005106,195847.8261,-0.7480916031,1.984732824,-0.9923664122,-0.9490254873,0.7031484258,1.584707646,1500.3663
807482.5134,1.369565217,10.81521739,1.739130435,-0.6271693597,10.31238779,0.09575104728,3,0.004662004662,214500,-0.7480916031,1.770992366,-0.8396946565,-0.9490254873,0.7031484258,1.584707646,1502.564103
807487.4573,1.380434783,10.84782609,1.760869565,-0.6439257929,10.30520646,0.07660083782,3,0.004662004662,214500,-0.6259541985,1.679389313,-0.9770992366,-0.9385307346,0.6941529235,1.568215892,1501.831502
807492.4011,1.358695652,10.84782609,1.75,-0.6247755835,10.29084381,0.05026929982,3,0.004662004662,214500,-0.6106870229,1.58778626,-0.8702290076,-0.9385307346,0.6941529235,1.568215892,1498.168498
807497.345,1.358695652,10.82608696,1.760869565,-0.6630760024,10.31956912,0.13165769,3,0.004662004662,214500,-0.7633587786,1.450381679,-1.083969466,-0.9505247376,0.7016491754,1.574212894,1500.3663
807502.2888,1.347826087,10.80434783,1.760869565,-0.5769000598,10.34350688,0.1723518851,3,0.005106005106,195847.8261,-0.6717557252,2.091603053,-0.9465648855,-0.9505247376,0.7016491754,1.574212894,1506.227106
807507.2327,1.413043478,10.83695652,1.815217391,-0.6104129264,10.31478157,0.1364452424,3,0.004662004662,214500,-0.4122137405,0.7175572519,-1.06870229,-0.9475262369,0.6971514243,1.583208396,1491.575092
807512.1765,1.369565217,10.80434783,1.739130435,-0.6391382406,10.31238779,0.184320766,3,0.004662004662,214500,-0.6870229008,1.480916031,-1.114503817,-0.9475262369,0.6971514243,1.583208396,1500.3663
807517.1204,1.380434783,10.81521739,1.760869565,-0.6223818073,10.30041891,0.157989228,3,0.004662004662,214500,-0.8091603053,1.145038168,-0.9160305344,-0.9460269865,0.7181409295,1.583208396,1502.564103
807522.0642,1.369565217,10.82608696,1.782608696,-0.5960502693,10.30281269,0.1723518851,3,0.004662004662,214500,-0.7633587786,0.7633587786,-1.099236641,-0.9460269865,0.7181409295,1.583208396,1499.6337
807527.0081,1.326086957,10.82608696,1.739130435,-0.7061639737,10.27648115,-0.08856971873,3,0.004662004662,214500,-1.099236641,1.20610687,-1.083969466,-0.9430284858,0.700149925,1.574212894,1501.831502
807531.9519,1.380434783,10.83695652,1.793478261,-0.6080191502,10.31717534,0.1532016756,3,0.004662004662,214500,-0.641221374,1.389312977,-0.8854961832,-0.9430284858,0.700149925,1.574212894,1494.505495
807536.8958,1.369565217,10.81521739,1.739130435,-0.6247755835,10.26211849,0.08138839019,3,0.005106005106,195847.8261,-0.7938931298,1.022900763,-1.221374046,-0.9415292354,0.6911544228,1.578710645,1499.6337
807541.8396,1.391304348,10.81521739,1.793478261,-0.6511071215,10.2812687,0.06941950928,3,0.005106005106,195847.8261,-0.8244274809,0.427480916,-1.374045802,-0.9415292354,0.6911544228,1.578710645,1491.575092
807546.7834,1.347826087,10.80434783,1.760869565,-0.6702573309,10.25493716,0.09814482346,3,0.004662004662,214500,-1.175572519,0.9618320611,-1.099236641,-0.9505247376,0.7061469265,1.574212894,1501.098901
807551.7273,1.336956522,10.79347826,1.760869565,-0.6870137642,10.2716936,0.02393776182,3,0.005106005106,195847.8261,-1.053435115,0.9465648855,-1.129770992,-0.9505247376,0.7061469265,1.574212894,1500.3663
807556.6711,1.380434783,10.80434783,1.75,-0.6223818073,10.25493716,0.1125074806,3,0.004662004662,214500,-1.099236641,1.374045802,-1.526717557,-0.9475262369,0.6986506747,1.575712144,1500.3663
807561.615,1.347826087,10.79347826,1.75,-0.7348892879,10.23578695,0.03111909037,3,0.004662004662,214500,-1.083969466,1.175572519,-1.694656489,-0.9475262369,0.6986506747,1.575712144,1497.435897
807566.5588,1.326086957,10.80434783,1.77173913,-0.6918013166,10.2812687,0.1532016756,3,0.004662004662,214500,-1.099236641,1.603053435,-1.038167939,-0.9460269865,0.6986506747,1.569715142,1498.168498
807571.5027,1.315217391,10.80434783,1.760869565,-0.7253141831,10.2716936,0.06941950928,3,0.005106005106,195847.8261,-0.8854961832,1.86259542,-1.038167939,-0.9460269865,0.6986506747,1.569715142,1498.901099
807576.4465,1.304347826,10.80434783,1.72826087,-0.6941950928,10.25014961,0.1077199282,3,0.004662004662,214500,-0.9007633588,2.610687023,-0.6259541985,-0.9490254873,0.700149925,1.569715142,1506.227106
807581.3904,1.304347826,10.7826087,1.75,-0.7468581688,10.25254339,0.1005385996,3,0.004662004662,214500,-0.7175572519,3.145038168,-0.6717557252,-0.9490254873,0.700149925,1.569715142,1501.831502
807586.3342,1.315217391,10.79347826,1.760869565,-0.6774386595,10.28845003,0.07660083782,3,0.004662004662,214500,-0.5648854962,3.190839695,-0.3358778626,-0.9550224888,0.7031484258,1.574212894,1503.296703
807591.2781,1.336956522,10.83695652,1.77173913,-0.6822262118,10.2716936,0.157989228,3,0.005106005106,195847.8261,-0.7480916031,3.465648855,-0.106870229,-0.9550224888,0.7031484258,1.574212894,1496.703297
807596.2219,1.347826087,10.82608696,1.77173913,-0.6750448833,10.30041891,0.07660083782,3,0.004662004662,214500,-1.007633588,3.954198473,-0.3816793893,-0.9430284858,0.700149925,1.575712144,1498.168498
807601.1658,1.369565217,10.83695652,1.782608696,-0.6822262118,10.29563136,0.1364452424,3,0.005106005106,195847.8261,-0.6564885496,4.442748092,-0.2900763359,-0.9430284858,0.700149925,1.575712144,1494.505495
807606.1096,1.391304348,10.83695652,1.793478261,-0.6726511071,10.28845003,0.1077199282,3,0.005106005106,195847.8261,-0.8091603053,4.106870229,-0.4122137405,-0.9475262369,0.7046476762,1.572713643,1490.10989
807611.0535,1.413043478,10.82608696,1.793478261,-0.6152004788,10.31478157,0.1699581089,3,0.004662004662,214500,-0.7022900763,3.618320611,-0.4885496183,-0.9475262369,0.7046476762,1.572713643,1487.912088
807615.9973,1.402173913,10.82608696,1.77173913,-0.6391382406,10.27408737,0.08138839019,3,0.004662004662,214500,-0.1984732824,3.221374046,-0.7786259542,-0.952023988,0.7016491754,1.571214393,1491.575092
807620.9412,1.391304348,10.82608696,1.77173913,-0.6367444644,10.29084381,0.1436265709,3,0.005106005106,195847.8261,-0.6106870229,2.519083969,-0.8091603053,-0.952023988,0.7016491754,1.571214393,1493.772894
807625.885,1.402173913,10.83695652,1.782608696,-0.6199880311,10.31717534,0.09575104728,3,0.004662004662,214500,-0.5190839695,2.091603053,-0.8244274809,-0.9550224888,0.7046476762,1.574212894,1495.970696
807630.8289,1.347826087,10.81521739,1.760869565,-0.6343506882,10.27887493,0.09814482346,3,0.004662004662,214500,-0.7786259542,1.679389313,-1.06870229,-0.9550224888,0.7046476762,1.574212894,1499.6337
807635.7727,1.380434783,10.83695652,1.760869565,-0.6391382406,10.2812687,0.1029323758,3,0.004662004662,214500,-0.7175572519,1.86259542,-0.8854961832,-0.9505247376,0.712143928,1.574212894,1500.3663
807640.7166,1.358695652,10.81521739,1.760869565,-0.6678635548,10.21424297,0.05745062837,3,0.004662004662,214500,-0.6259541985,1.541984733,-1.022900763,-0.9505247376,0.712143928,1.574212894,1501.098901
807645.6604,1.358695652,10.80434783,1.75,-0.6678635548,10.2716936,0.01675643327,3,0.004662004662,214500,-0.641221374,1.893129771,-1.06870229,-0.9475262369,0.6956521739,1.568215892,1498.901099
807650.6042,1.347826087,10.81521739,1.75,-0.7301017355,10.27648115,0.002393776182,3,0.004662004662,214500,-0.7633587786,2.152671756,-1.038167939,-0.9475262369,0.6956521739,1.568215892,1497.435897
807655.5481,1.358695652,10.82608696,1.739130435,-0.6511071215,10.29802513,0.1244763615,3,0.004662004662,214500,-0.8244274809,2.702290076,-1.007633588,-0.9535232384,0.7076461769,1.563718141,1501.098901
807660.4919,1.347826087,10.80434783,1.760869565,-0.6678635548,10.28605625,0.08856971873,3,0.005106005106,195847.8261,-0.5954198473,2.41221374,-1.022900763,-0.9535232384,0.7076461769,1.563718141,1501.098901
807665.4358,1.358695652,10.82608696,1.739130435,-0.6726511071,10.28366248,0.1508078995,3,0.004662004662,214500,-0.5954198473,2.549618321,-1.022900763,-0.9430284858,0.7061469265,1.569715142,1504.029304
807670.3796,1.369565217,10.82608696,1.760869565,-0.7013764213,10.25493716,0.04069419509,3,0.005106005106,195847.8261,-0.4732824427,2.183206107,-0.9923664122,-0.9430284858,0.7061469265,1.569715142,1504.029304
807675.3235,1.369565217,10.81521739,1.815217391,-0.6463195691,10.25972472,0.1005385996,3,0.005106005106,195847.8261,-0.4122137405,1.297709924,-0.9618320611,-0.9385307346,0.7061469265,1.569715142,1488.644689
807680.2673,1.369565217,10.84782609,1.793478261,-0.6726511071,10.2812687,0.13165769,3,0.004662004662,214500,-0.5496183206,1.328244275,-0.9007633588,-0.9385307346,0.7061469265,1.569715142,1488.644689
807685.2112,1.336956522,10.79347826,1.77173913,-0.6870137642,10.23578695,0.1292639138,3,0.005106005106,195847.8261,-0.3816793893,1.572519084,-1.083969466,-0.9445277361,0.7076461769,1.571214393,1493.040293
807690.155,1.347826087,10.79347826,1.72826087,-0.6918013166,10.2812687,0.1364452424,3,0.004662004662,214500,-0.6259541985,1.786259542,-0.9312977099,-0.9445277361,0.7076461769,1.571214393,1501.098901
807695.0989,1.336956522,10.80434783,1.739130435,-0.6439257929,10.30041891,0.06463195691,3,0.004662004662,214500,-0.3816793893,1.419847328,-0.8091603053,-0.940029985,0.7016491754,1.575712144,1502.564103
807700.0427,1.336956522,10.80434783,1.739130435,-0.6511071215,10.26451227,0.1005385996,3,0.004662004662,214500,-0.2595419847,2.183206107,-0.7480916031,-0.940029985,0.7016491754,1.575712144,1504.761905
807704.9866,1.336956522,10.79347826,1.75,-0.6630760024,10.2716936,0.1388390186,3,0.004662004662,214500,-0.7328244275,2.717557252,-0.9312977099,-0.9430284858,0.7061469265,1.580209895,1501.831502
807709.9304,1.336956522,10.79347826,1.760869565,-0.6415320168,10.27648115,0.13165769,3,0.005106005106,195847.8261,-0.5038167939,2.503816794,-0.5801526718,-0.9430284858,0.7061469265,1.580209895,1501.098901
807714.8743,1.358695652,10.80434783,1.760869565,-0.6702573309,10.26451227,0.1029323758,3,0.004662004662,214500,-0.3358778626,3.511450382,-0.5190839695,-0.9415292354,0.7181409295,1.571214393,1504.029304
807719.8181,1.315217391,10.80434783,1.760869565,-0.710951526,10.26690604,0.06223818073,3,0.004662004662,214500,-0.534351145,3.786259542,-0.2290076336,-0.9415292354,0.7181409295,1.571214393,1500.3663
807724.762,1.326086957,10.82608696,1.75,-0.684619988,10.27648115,0.1029323758,3,0.004662004662,214500,-0.5190839695,4.503816794,-0.1526717557,-0.9430284858,0.712143928,1.572713643,1501.098901
807729.7058,1.347826087,10.83695652,1.760869565,-0.6415320168,10.30999402,0.09575104728,3,0.004662004662,214500,-0.4427480916,4.824427481,-0.213740458,-0.9430284858,0.712143928,1.572713643,1501.098901
807734.6497,1.347826087,10.82608696,1.760869565,-0.6487133453,10.29563136,0.1508078995,3,0.004662004662,214500,-0.07633587786,5.282442748,-0.3664122137,-0.9490254873,0.6956521739,1.574212894,1501.098901
807739.5935,1.391304348,10.83695652,1.77173913,-0.631956912,10.27648115,0.1244763615,3,0.004662004662,214500,-0.320610687,4.65648855,-0.1832061069,-0.9490254873,0.6956521739,1.574212894,1498.901099
807744.5374,1.402173913,10.82608696,1.793478261,-0.6439257929,10.31238779,0.1364452424,3,0.004662004662,214500,0.106870229,4,-0.2595419847,-0.9490254873,0.6956521739,1.574212894,1490.842491
807747.0093,1.391304348,10.82608696,1.793478261,-0.6271693597,10.25254339,0.1555954518,3,0.004662004662,214500,-0.1679389313,3.267175573,-0.4122137405,-0.9460269865,0.6956521739,1.565217391,1487.912088
807751.9531,1.402173913,10.81521739,1.782608696,-0.631956912,10.30281269,0.13165769,3,0.005106005106,195847.8261,-0.213740458,2.946564885,-0.3816793893,-0.9460269865,0.6956521739,1.565217391,1492.307692
807756.897,1.445652174,10.81521739,1.815217391,-0.4284859366,10.25733094,0.2944344704,3,0.004662004662,214500,-0.2748091603,1.633587786,-0.427480916,-0.9505247376,0.7016491754,1.577211394,1484.981685
807761.8408,1.347826087,10.82608696,1.684782609,-0.5338120886,10.15439856,0.342309994,3,0.005106005106,195847.8261,-0.1679389313,3.236641221,-0.7480916031,-0.9505247376,0.7016491754,1.577211394,1501.831502
807766.7847,1.413043478,10.82608696,1.760869565,-0.4883303411,10.36505087,0.3040095751,3,0.004662004662,214500,-0.2442748092,1.709923664,-0.8396946565,-0.9535232384,0.7196401799,1.562218891,1506.227106
807771.7285,1.5,10.85869565,1.836956522,-1.036505087,10.21903052,0.2585278276,3,0.004662004662,214500,0.5190839695,2.732824427,-2.122137405,-0.9535232384,0.7196401799,1.562218891,1485.714286
807776.6724,1.163043478,10.76086957,1.967391304,-0.4643925793,10.33871933,0,3,0.005106005106,195847.8261,0.6259541985,-1.465648855,0.4427480916,-0.9490254873,0.7061469265,1.572713643,1450.549451
807781.6162,1.467391304,10.84782609,1.510869565,-0.5769000598,10.24536206,-0.1627767804,3,0.005106005106,195847.8261,-0.2595419847,1.267175573,-1.297709924,-0.9490254873,0.7061469265,1.572713643,1528.937729
807786.5601,1.369565217,10.7826087,1.72826087,-0.7468581688,10.21184919,0.1412327947,3,0.004662004662,214500,-0.2900763359,1.328244275,-1.190839695,-0.9475262369,0.6911544228,1.575712144,1521.611722
807791.5039,1.315217391,10.79347826,1.72826087,-0.6487133453,10.21663674,0.1460203471,3,0.004662004662,214500,-0.5190839695,1.435114504,-0.9312977099,-0.9475262369,0.6911544228,1.575712144,1508.424908
807796.4478,1.413043478,10.79347826,1.847826087,-0.5697187313,10.27887493,0.07660083782,3,0.004662004662,214500,-0.3969465649,-0.6717557252,-0.7328244275,-0.9475262369,0.6956521739,1.572713643,1489.377289
807801.3916,1.304347826,10.79347826,1.706521739,-0.7061639737,10.24775583,0.03111909037,3,0.004662004662,214500,-0.5648854962,0.8702290076,-0.8396946565,-0.9475262369,0.6956521739,1.572713643,1500.3663
807806.3354,1.369565217,10.80434783,1.739130435,-0.6128067026,10.31478157,0.09096349491,3,0.004662004662,214500,-0.5190839695,0.8244274809,-0.8702290076,-0.952023988,0.724137931,1.578710645,1505.494505
807811.2793,1.336956522,10.80434783,1.717391304,-0.7564332735,10.25972472,-0.04548174746,3,0.004218004218,237078.9474,-0.3511450382,0.7786259542,-0.9770992366,-0.952023988,0.724137931,1.578710645,1508.424908
807816.2231,1.391304348,10.81521739,1.75,-0.5745062837,10.32675045,0.0933572711,3,0.004662004662,214500,-0.4580152672,1.038167939,-0.5190839695,-0.9445277361,0.7091454273,1.572713643,1506.227106
807821.167,1.347826087,10.81521739,1.717391304,-0.6941950928,10.27887493,0.1268701376,3,0.005106005106,195847.8261,-0.3511450382,2.396946565,-0.9770992366,-0.9445277361,0.7091454273,1.572713643,1511.355311
807826.1108,1.358695652,10.80434783,1.782608696,-0.6606822262,10.29323758,0.1699581089,3,0.004662004662,214500,-0.6717557252,1.969465649,-0.4732824427,-0.9460269865,0.712143928,1.581709145,1501.098901
807831.0547,1.304347826,10.81521739,1.760869565,-0.6774386595,10.30760024,0.1077199282,3,0.004662004662,214500,-0.5038167939,2.732824427,-0.4580152672,-0.9460269865,0.712143928,1.581709145,1501.098901
807835.9985,1.315217391,10.79347826,1.717391304,-0.6822262118,10.20227409,0.02872531418,3,0.004662004662,214500,-0.2442748092,3.465648855,-0.3053435115,-0.9460269865,0.7016491754,1.568215892,1505.494505
807840.9424,1.347826087,10.80434783,1.77173913,-0.6894075404,10.26929982,0.13165769,3,0.004662004662,214500,-0.5190839695,3.083969466,-0.4885496183,-0.9460269865,0.7016491754,1.568215892,1503.296703
807845.8862,1.336956522,10.80434783,1.739130435,-0.684619988,10.27408737,0.04787552364,3,0.005106005106,195847.8261,-0.4732824427,3.312977099,-0.1374045802,-0.9385307346,0.6941529235,1.569715142,1501.831502
807850.8301,1.315217391,10.80434783,1.760869565,-0.6965888689,10.2716936,0.1244763615,3,0.004662004662,214500,-0.3816793893,3.511450382,-0.07633587786,-0.9385307346,0.6941529235,1.569715142,1506.227106
807855.7739,1.336956522,10.80434783,1.75,-0.5936564931,10.2812687,0.08138839019,3,0.004662004662,214500,-0.4885496183,3.603053435,0.3511450382,-0.940029985,0.6956521739,1.568215892,1501.098901
807860.7178,1.456521739,10.81521739,1.75,-0.5481747457,10.3219629,0.1172950329,3,0.005106005106,195847.8261,-0.3664122137,3.664122137,0.4885496183,-0.940029985,0.6956521739,1.568215892,1499.6337
807865.6616,1.369565217,10.82608696,1.695652174,-0.6487133453,10.27648115,-0.007181328546,3,0.004662004662,214500,-0.09160305344,4.381679389,0.7328244275,-0.9445277361,0.7106446777,1.580209895,1513.553114
807870.6055,1.380434783,10.83695652,1.739130435,-0.6223818073,10.33393178,0.04787552364,3,0.004662004662,214500,-0.2290076336,5.832061069,1.633587786,-0.9445277361,0.7106446777,1.580209895,1510.622711
807875.5493,1.402173913,10.84782609,1.75,-0.6415320168,10.24775583,0.06941950928,3,0.004662004662,214500,0.04580152672,6.335877863,2.595419847,-0.9385307346,0.6971514243,1.568215892,1503.296703
807880.4932,1.347826087,10.84782609,1.77173913,-0.65828845,10.33393178,0.1125074806,3,0.004662004662,214500,-0.2290076336,5.374045802,2.091603053,-0.9385307346,0.6971514243,1.568215892,1497.435897
807885.437,1.369565217,10.89130435,1.760869565,-0.6535008977,10.4320766,0.1149012567,3,0.004662004662,214500,-0.534351145,4.79389313,2.809160305,-0.9475262369,0.6971514243,1.571214393,1498.901099
807890.3809,1.402173913,10.92391304,1.75,-0.6535008977,10.36026332,0.06223818073,3,0.004662004662,214500,-0.8396946565,5.312977099,5.34351145,-0.9475262369,0.6971514243,1.571214393,1498.168498
807895.3247,1.413043478,10.91304348,1.72826087,-0.5314183124,10.331538,0.1172950329,3,0.004662004662,214500,-1.099236641,5.679389313,7.648854962,-0.9505247376,0.7106446777,1.575712144,1504.761905
807900.2686,1.467391304,10.93478261,1.782608696,-0.5314183124,10.50628366,0.07181328546,3,0.005106005106,195847.8261,-0.8244274809,3.755725191,9.847328244,-0.9505247376,0.7106446777,1.575712144,1498.901099
807905.2124,1.434782609,10.81521739,1.760869565,-0.6511071215,10.17594255,0.06463195691,3,0.004662004662,214500,-0.7480916031,2.549618321,10.07633588,-0.9490254873,0.688155922,1.571214393,1497.435897
807910.1563,1.402173913,10.73913043,1.72826087,-0.5481747457,10.10412926,0.1077199282,3,0.004662004662,214500,-0.5648854962,3.145038168,7.847328244,-0.9490254873,0.688155922,1.571214393,1504.761905
807915.1001,1.445652174,10.83695652,1.75,-0.5481747457,10.40095751,0.1603830042,3,0.004662004662,214500,-0.6564885496,2.381679389,7.664122137,-0.9460269865,0.6941529235,1.566716642,1501.831502
807920.0439,1.445652174,10.81521739,1.804347826,-0.5218432077,10.20227409,0.09575104728,3,0.004662004662,214500,-1.251908397,1.06870229,9.114503817,-0.9460269865,0.6941529235,1.566716642,1493.040293
807924.9878,1.413043478,10.70652174,1.75,-0.5146618791,10.1208857,0.05505685218,3,0.005106005106,195847.8261,-0.8854961832,1.175572519,4.992366412,-0.9445277361,0.6986506747,1.572713643,1493.040293
807929.9316,1.445652174,10.72826087,1.782608696,-0.52663076,10.14003591,0.1651705566,3,0.005106005106,195847.8261,-0.6717557252,0.9770992366,3.221374046,-0.9445277361,0.6986506747,1.572713643,1496.703297
807934.8755,1.423913043,10.72826087,1.782608696,-0.5338120886,10.20706164,0.09575104728,3,0.004662004662,214500,-0.8702290076,-0.4122137405,1.847328244,-0.9445277361,0.7046476762,1.577211394,1493.772894
807939.8193,1.402173913,10.73913043,1.72826087,-0.5864751646,10.25014961,0.1364452424,3,0.004662004662,214500,-0.9160305344,0.06106870229,0.1832061069,-0.9445277361,0.7046476762,1.577211394,1504.029304
807944.7632,1.434782609,10.7826087,1.804347826,-0.5457809695,10.20466786,0.1149012567,3,0.004662004662,214500,-0.6106870229,-0.3969465649,-0.5038167939,-0.9475262369,0.7091454273,1.577211394,1497.435897
807949.707,1.445652174,10.79347826,1.782608696,-0.5649311789,10.24775583,0.1172950329,3,0.004662004662,214500,-0.7786259542,-0.2900763359,-0.9160305344,-0.9475262369,0.7091454273,1.577211394,1494.505495
807954.6509,1.434782609,10.79347826,1.77173913,-0.5960502693,10.21184919,0.09814482346,3,0.004662004662,214500,-0.6106870229,-0.6259541985,-0.9465648855,-0.952023988,0.7046476762,1.581709145,1495.238095
807959.5947,1.434782609,10.80434783,1.77173913,-0.5888689408,10.2812687,0.06223818073,3,0.004662004662,214500,-0.9770992366,-0.6717557252,-1.06870229,-0.952023988,0.7046476762,1.581709145,1495.238095
807964.5386,1.445652174,10.81521739,1.75,-0.5984440455,10.29802513,0.04787552364,3,0.005106005106,195847.8261,-0.6717557252,-0.4122137405,-0.9618320611,-0.9475262369,0.712143928,1.566716642,1498.168498
807969.4824,1.413043478,10.83695652,1.760869565,-0.5673249551,10.29563136,0.06941950928,3,0.004662004662,214500,-0.9312977099,0.2595419847,-1.007633588,-0.9475262369,0.712143928,1.566716642,1503.296703
807974.4263,1.434782609,10.83695652,1.760869565,-0.5840813884,10.29084381,0.105326152,3,0.004662004662,214500,-0.8549618321,0.3816793893,-1.06870229,-0.9505247376,0.7136431784,1.572713643,1501.831502
807979.3701,1.423913043,10.82608696,1.793478261,-0.552962298,10.25733094,0.1029323758,3,0.004662004662,214500,-0.8549618321,0.01526717557,-0.8702290076,-0.9505247376,0.7136431784,1.572713643,1491.575092
807984.314,1.434782609,10.82608696,1.77173913,-0.5769000598,10.29802513,0.1077199282,3,0.005106005106,195847.8261,-0.6564885496,0.04580152672,-0.8549618321,-0.9535232384,0.7166416792,1.574212894,1493.772894
807989.2578,1.434782609,10.82608696,1.75,-0.5745062837,10.30520646,0.05505685218,3,0.004662004662,214500,-0.5496183206,-0.213740458,-0.8549618321,-0.9535232384,0.7166416792,1.574212894,1495.970696
807994.2017,1.423913043,10.82608696,1.739130435,-0.5888689408,10.30281269,0.1172950329,3,0.005106005106,195847.8261,-0.6106870229,0.213740458,-0.9160305344,-0.9430284858,0.7016491754,1.575712144,1501.831502
807999.1455,1.423913043,10.82608696,1.75,-0.5697187313,10.26929982,0.08378216637,3,0.004662004662,214500,-0.7022900763,0.1526717557,-0.641221374,-0.9430284858,0.7016491754,1.575712144,1499.6337
808004.0894,1.423913043,10.82608696,1.760869565,-0.5673249551,10.2716936,0.1196888091,3,0.004662004662,214500,-0.641221374,0.106870229,-0.8549618321,-0.9490254873,0.7106446777,1.574212894,1502.564103
808009.0332,1.445652174,10.81521739,1.77173913,-0.6008378217,10.29084381,0.052663076,3,0.004662004662,214500,-0.8854961832,0.3511450382,-0.7480916031,-0.9490254873,0.7106446777,1.574212894,1496.703297
808013.9771,1.445652174,10.83695652,1.760869565,-0.6798324357,10.27648115,0.02154398564,3,0.005106005106,195847.8261,-0.534351145,0.5190839695,-0.8244274809,-0.9475262369,0.7076461769,1.575712144,1499.6337
808018.9209,1.467391304,10.81521739,1.826086957,-0.4835427887,10.24057451,0.2010771993,3,0.004662004662,214500,-0.3664122137,-0.3358778626,-0.6564885496,-0.9475262369,0.7076461769,1.575712144,1491.575092
808023.8647,1.434782609,10.82608696,1.760869565,-0.6128067026,10.28366248,0.05026929982,3,0.005106005106,195847.8261,-0.5648854962,-0.3053435115,-0.5648854962,-0.9475262369,0.7166416792,1.572713643,1497.435897
808028.8086,1.413043478,10.80434783,1.793478261,-0.5601436266,10.2716936,0.1005385996,3,0.005106005106,195847.8261,-0.7786259542,0.320610687,-0.7938931298,-0.9475262369,0.7166416792,1.572713643,1493.772894
808033.7524,1.434782609,10.80434783,1.77173913,-0.5960502693,10.28366248,0.05505685218,3,0.004662004662,214500,-0.9770992366,-0.5648854962,-0.7175572519,-0.9430284858,0.7016491754,1.580209895,1493.772894
808038.6963,1.456521739,10.81521739,1.782608696,-0.5769000598,10.22621185,0.1603830042,3,0.005106005106,195847.8261,-0.9618320611,-0.5954198473,-0.8244274809,-0.9430284858,0.7016491754,1.580209895,1493.772894
808043.6401,1.413043478,10.80434783,1.75,-0.5912627169,10.26690604,0.01196888091,3,0.005106005106,195847.8261,-1.435114504,-0.2900763359,-0.6259541985,-0.9595202399,0.7016491754,1.578710645,1498.168498
808048.584,1.413043478,10.80434783,1.793478261,-0.5721125075,10.28845003,0.0933572711,3,0.005106005106,195847.8261,-1.526717557,-0.2442748092,-0.8396946565,-0.9595202399,0.7016491754,1.578710645,1493.040293
808053.5278,1.423913043,10.80434783,1.760869565,-0.5984440455,10.27408737,0.09575104728,3,0.005106005106,195847.8261,-1.236641221,-0.1832061069,-0.4732824427,-0.9550224888,0.7061469265,1.574212894,1498.168498
808058.4717,1.423913043,10.81521739,1.75,-0.5673249551,10.29563136,0.05505685218,3,0.004662004662,214500,-1.267175573,0.2595419847,-0.8396946565,-0.9550224888,0.7061469265,1.574212894,1500.3663
808063.4155,1.445652174,10.82608696,1.793478261,-0.5864751646,10.27648115,0.1292639138,3,0.005106005106,195847.8261,-1.175572519,-0.5648854962,-0.6106870229,-0.9595202399,0.7286356822,1.574212894,1493.040293
808068.3594,1.434782609,10.80434783,1.760869565,-0.5984440455,10.27648115,0.06223818073,3,0.005106005106,195847.8261,-0.9007633588,-0.5496183206,-0.7480916031,-0.9595202399,0.7286356822,1.574212894,1498.901099
808073.3032,1.423913043,10.81521739,1.760869565,-0.5433871933,10.29323758,0.08617594255,3,0.005106005106,195847.8261,-0.8702290076,0,-0.6717557252,-0.9595202399,0.7286356822,1.574212894,1501.098901
808075.7751,1.423913043,10.82608696,1.77173913,-0.5769000598,10.2812687,0.07660083782,3,0.004662004662,214500,-0.6259541985,-0.07633587786,-0.9160305344,-0.9625187406,0.7316341829,1.577211394,1498.168498
808080.719,1.434782609,10.82608696,1.75,-0.5816876122,10.2812687,0.07420706164,3,0.005106005106,195847.8261,-0.427480916,-0.3358778626,-0.7786259542,-0.9625187406,0.7316341829,1.577211394,1496.703297
808085.6628,1.445652174,10.82608696,1.760869565,-0.605625374,10.30760024,0.105326152,3,0.004662004662,214500,-0.4427480916,-0.1832061069,-0.8702290076,-0.952023988,0.7136431784,1.571214393,1502.564103
808090.6067,1.434782609,10.84782609,1.760869565,-0.5745062837,10.2716936,0.1029323758,3,0.004662004662,214500,-0.641221374,0.09160305344,-0.7175572519,-0.952023988,0.7136431784,1.571214393,1503.296703
808095.5505,1.445652174,10.83695652,1.760869565,-0.5721125075,10.28366248,0.1340514662,3,0.004662004662,214500,-0.4580152672,-0.3969465649,-0.8702290076,-0.9415292354,0.7016491754,1.572713643,1504.029304
808100.4944,1.413043478,10.82608696,1.760869565,-0.5769000598,10.26211849,0.09096349491,3,0.004662004662,214500,-0.1374045802,-0.427480916,-0.5648854962,-0.9415292354,0.7016491754,1.572713643,1503.296703
808105.4382,1.445652174,10.83695652,1.760869565,-0.5601436266,10.26690604,0.04069419509,3,0.004662004662,214500,-0.1526717557,-0.1984732824,-0.9465648855,-0.9445277361,0.7016491754,1.572713643,1503.296703
808110.3821,1.445652174,10.82608696,1.77173913,-0.5769000598,10.28605625,0.1077199282,3,0.005106005106,195847.8261,-0.01526717557,-0.2290076336,-0.7786259542,-0.9445277361,0.7016491754,1.572713643,1499.6337
808115.3259,1.445652174,10.83695652,1.75,-0.5362058648,10.30281269,0.06223818073,3,0.004662004662,214500,-0.3358778626,-0.3816793893,-1.007633588,-0.9490254873,0.7196401799,1.569715142,1498.168498
808120.2698,1.445652174,10.81521739,1.77173913,-0.552962298,10.29084381,0.13165769,3,0.004662004662,214500,-0.2290076336,-0.7328244275,-0.7938931298,-0.9490254873,0.7196401799,1.569715142,1495.970696
808125.2136,1.434782609,10.80434783,1.72826087,-0.6008378217,10.25733094,-0.026331538,3,0.004662004662,214500,-0.3053435115,-0.5954198473,-1.099236641,-0.9505247376,0.7196401799,1.572713643,1501.831502
808130.1575,1.456521739,10.80434783,1.75,-0.552962298,10.27887493,0.1101137044,3,0.005106005106,195847.8261,-0.07633587786,-0.4427480916,-0.9465648855,-0.9505247376,0.7196401799,1.572713643,1499.6337
808135.1013,1.434782609,10.80434783,1.760869565,-0.5505685218,10.26929982,0.05984440455,3,0.005106005106,195847.8261,-0.3053435115,-0.1832061069,-0.9618320611,-0.9475262369,0.7106446777,1.574212894,1503.296703
808140.0452,1.423913043,10.81521739,1.793478261,-0.5816876122,10.27648115,0.1651705566,3,0.005106005106,195847.8261,-0.8244274809,-0.1832061069,-1.190839695,-0.9475262369,0.7106446777,1.574212894,1491.575092
808144.989,1.402173913,10.80434783,1.72826087,-0.5960502693,10.26211849,0.1029323758,3,0.004662004662,214500,-0.5801526718,-0.06106870229,-1.053435115,-0.9430284858,0.7046476762,1.571214393,1503.296703
808149.9329,1.413043478,10.80434783,1.75,-0.5936564931,10.27887493,0.1125074806,3,0.004662004662,214500,-0.534351145,0.06106870229,-1.282442748,-0.9430284858,0.7046476762,1.571214393,1500.3663
808154.8767,1.434782609,10.82608696,1.760869565,-0.5912627169,10.29323758,0.09575104728,3,0.005106005106,195847.8261,-0.534351145,0.534351145,-1.129770992,-0.9490254873,0.6971514243,1.575712144,1501.098901
808159.8206,1.413043478,10.81521739,1.760869565,-0.6175942549,10.28605625,0.1101137044,3,0.005106005106,195847.8261,-0.5801526718,0.1526717557,-1.099236641,-0.9490254873,0.6971514243,1.575712144,1502.564103
808164.7644,1.423913043,10.81521739,1.760869565,-0.5888689408,10.30281269,0.09096349491,3,0.004662004662,214500,-0.8702290076,0.213740458,-1.007633588,-0.9460269865,0.7256371814,1.586206897,1501.098901
808169.7083,1.445652174,10.81521739,1.760869565,-0.5625374028,10.26451227,0.0933572711,3,0.005106005106,195847.8261,-0.6870229008,0.106870229,-1.083969466,-0.9460269865,0.7256371814,1.586206897,1501.098901
808174.6521,1.445652174,10.80434783,1.77173913,-0.5816876122,10.30760024,0.09096349491,3,0.004662004662,214500,-0.6870229008,0.1832061069,-0.9312977099,-0.9505247376,0.7061469265,1.568215892,1499.6337
808179.5959,1.434782609,10.79347826,1.75,-0.5864751646,10.29084381,0.1029323758,3,0.004662004662,214500,-1.053435115,0.4885496183,-0.9312977099,-0.9505247376,0.7061469265,1.568215892,1497.435897
808184.5398,1.445652174,10.81521739,1.77173913,-0.5816876122,10.2812687,0.06941950928,3,0.004662004662,214500,-1.175572519,0.6106870229,-1.007633588,-0.952023988,0.7061469265,1.569715142,1497.435897
808189.4836,1.423913043,10.81521739,1.760869565,-0.5745062837,10.29084381,0.1340514662,3,0.004662004662,214500,-1.083969466,0.6564885496,-1.145038168,-0.952023988,0.7061469265,1.569715142,1501.831502
808194.4275,1.413043478,10.82608696,1.739130435,-0.5816876122,10.29563136,0.1101137044,3,0.004662004662,214500,-0.9923664122,0.5954198473,-0.9465648855,-0.9490254873,0.6986506747,1.563718141,1504.029304
808199.3713,1.402173913,10.82608696,1.739130435,-0.5769000598,10.26451227,0.07181328546,3,0.005106005106,195847.8261,-0.8702290076,1.099236641,-1.099236641,-0.9490254873,0.6986506747,1.563718141,1504.029304
808204.3152,1.434782609,10.82608696,1.782608696,-0.5290245362,10.25493716,0.09814482346,3,0.004662004662,214500,-0.7786259542,0.9312977099,-1.053435115,-0.9490254873,0.7031484258,1.572713643,1496.703297
808209.259,1.434782609,10.81521739,1.782608696,-0.5697187313,10.27887493,0.0933572711,3,0.005106005106,195847.8261,-0.8244274809,0.8854961832,-1.022900763,-0.9490254873,0.7031484258,1.572713643,1494.505495
808214.2029,1.413043478,10.81521739,1.75,-0.5745062837,10.28366248,0.1029323758,3,0.004662004662,214500,-0.5954198473,1.038167939,-0.8091603053,-0.9475262369,0.7061469265,1.568215892,1496.703297
808219.1467,1.423913043,10.83695652,1.75,-0.6152004788,10.26690604,0.1005385996,3,0.004662004662,214500,-0.6106870229,1.832061069,-0.7786259542,-0.9475262369,0.7061469265,1.568215892,1498.901099
808224.0906,1.413043478,10.82608696,1.782608696,-0.5649311789,10.39616996,0.06223818073,3,0.004662004662,214500,-0.5801526718,1.129770992,-0.9618320611,-0.9490254873,0.7061469265,1.569715142,1497.435897
808229.0344,1.423913043,10.82608696,1.782608696,-0.579293836,10.31478157,0.06223818073,3,0.005106005106,195847.8261,-0.7633587786,1.083969466,-0.8091603053,-0.9490254873,0.7061469265,1.569715142,1492.307692
808233.9783,1.402173913,10.79347826,1.739130435,-0.5673249551,10.3219629,0.1220825853,3,0.004662004662,214500,-0.427480916,1.053435115,-0.7175572519,-0.952023988,0.7076461769,1.569715142,1499.6337
808238.9221,1.434782609,10.81521739,1.77173913,-0.5888689408,10.29084381,0.1292639138,3,0.005106005106,195847.8261,-0.5801526718,0.9618320611,-0.7022900763,-0.952023988,0.7076461769,1.569715142,1498.901099
808243.866,1.423913043,10.80434783,1.77173913,-0.5840813884,10.28366248,0.05984440455,3,0.004662004662,214500,-0.6259541985,0.7175572519,-0.8854961832,-0.9490254873,0.7031484258,1.577211394,1493.772894
808248.8098,1.445652174,10.80434783,1.77173913,-0.5936564931,10.24536206,0.02872531418,3,0.005106005106,195847.8261,-0.5648854962,0.8854961832,-0.8396946565,-0.9490254873,0.7031484258,1.577211394,1495.238095
808253.7537,1.434782609,10.82608696,1.75,-0.6104129264,10.331538,0.05984440455,3,0.004662004662,214500,-0.1679389313,0.5954198473,-0.5801526718,-0.9490254873,0.7091454273,1.575712144,1496.703297
808258.6975,1.423913043,10.81521739,1.739130435,-0.5984440455,10.26451227,0.06463195691,3,0.004662004662,214500,-0.6106870229,0.5801526718,-0.8091603053,-0.9490254873,0.7091454273,1.575712144,1503.296703
808263.6414,1.445652174,10.82608696,1.77173913,-0.5960502693,10.27408737,0.06223818073,3,0.004662004662,214500,-0.2900763359,1.06870229,-0.8702290076,-0.9550224888,0.7151424288,1.569715142,1499.6337
808268.5852,1.445652174,10.81521739,1.760869565,-0.5553560742,10.31717534,0.08617594255,3,0.005106005106,195847.8261,-0.6870229008,1.496183206,-0.7328244275,-0.9550224888,0.7151424288,1.569715142,1501.098901
808273.5291,1.402173913,10.79347826,1.760869565,-0.5960502693,10.2716936,0.06941950928,3,0.005106005106,195847.8261,-0.6259541985,1.099236641,-1.053435115,-0.9535232384,0.7076461769,1.571214393,1500.3663
808278.4729,1.423913043,10.79347826,1.760869565,-0.6080191502,10.26929982,0.09575104728,3,0.004662004662,214500,-0.5801526718,1.34351145,-0.9770992366,-0.9535232384,0.7076461769,1.571214393,1503.296703
808283.4167,1.434782609,10.82608696,1.782608696,-0.5457809695,10.31478157,0.05745062837,3,0.004662004662,214500,-0.9312977099,1.511450382,-0.641221374,-0.9430284858,0.7211394303,1.575712144,1498.168498
808288.3606,1.423913043,10.80434783,1.760869565,-0.5601436266,10.30760024,0.05026929982,3,0.005106005106,195847.8261,-1.221374046,1.58778626,-0.7938931298,-0.9430284858,0.7211394303,1.575712144,1499.6337
808293.3044,1.423913043,10.83695652,1.75,-0.5481747457,10.28845003,0.105326152,3,0.004662004662,214500,-1.267175573,1.603053435,-0.8549618321,-0.9445277361,0.7196401799,1.578710645,1498.901099
808298.2483,1.413043478,10.81521739,1.760869565,-0.5553560742,10.28845003,0.1172950329,3,0.005106005106,195847.8261,-0.8396946565,1.770992366,-0.9465648855,-0.9445277361,0.7196401799,1.578710645,1500.3663
808303.1921,1.434782609,10.82608696,1.77173913,-0.5338120886,10.31478157,0.1891083184,3,0.004662004662,214500,-0.7633587786,1.648854962,-0.8702290076,-0.9430284858,0.7061469265,1.569715142,1496.703297
808308.136,1.423913043,10.83695652,1.760869565,-0.5457809695,10.32435667,0.0933572711,3,0.005106005106,195847.8261,-0.7175572519,2.030534351,-0.7328244275,-0.9430284858,0.7061469265,1.569715142,1501.831502
808313.0798,1.423913043,10.82608696,1.782608696,-0.5864751646,10.3219629,0.08138839019,3,0.004662004662,214500,-0.8244274809,1.72519084,-0.7938931298,-0.952023988,0.7076461769,1.566716642,1498.168498
808318.0237,1.434782609,10.81521739,1.782608696,-0.5409934171,10.31956912,0.1196888091,3,0.005106005106,195847.8261,-0.6564885496,2.061068702,-0.9007633588,-0.952023988,0.7076461769,1.566716642,1494.505495
808322.9675,1.445652174,10.82608696,1.75,-0.5745062837,10.29084381,0.1268701376,3,0.005106005106,195847.8261,-0.3664122137,2.091603053,-0.7175572519,-0.9625187406,0.7046476762,1.569715142,1496.703297
808327.9114,1.434782609,10.82608696,1.75,-0.5409934171,10.25254339,0.1484141233,3,0.005106005106,195847.8261,-0.7175572519,2.610687023,-0.8244274809,-0.9625187406,0.7046476762,1.569715142,1498.901099
808332.8552,1.434782609,10.81521739,1.760869565,-0.5601436266,10.26211849,0.06941950928,3,0.005106005106,195847.8261,-0.6564885496,2.27480916,-0.5954198473,-0.9445277361,0.7091454273,1.571214393,1500.3663
808337.7991,1.413043478,10.80434783,1.760869565,-0.6008378217,10.28845003,0.01675643327,3,0.004662004662,214500,-0.5190839695,2.610687023,-0.4122137405,-0.9445277361,0.7091454273,1.571214393,1502.564103
808342.7429,1.413043478,10.80434783,1.75,-0.5745062837,10.29563136,0.0933572711,3,0.004662004662,214500,-0.3664122137,2.458015267,-0.7480916031,-0.9535232384,0.7046476762,1.581709145,1500.3663
808347.6868,1.445652174,10.81521739,1.77173913,-0.5888689408,10.30281269,0.1149012567,3,0.004662004662,214500,-0.4732824427,2.534351145,-0.7480916031,-0.9535232384,0.7046476762,1.581709145,1498.901099
808352.6306,1.434782609,10.80434783,1.760869565,-0.5936564931,10.29563136,0.1077199282,3,0.005106005106,195847.8261,-0.5190839695,2.442748092,-0.7328244275,-0.952023988,0.7196401799,1.574212894,1498.901099
808357.5745,1.445652174,10.80434783,1.77173913,-0.579293836,10.30999402,0.1101137044,3,0.004662004662,214500,-0.534351145,2.335877863,-0.7022900763,-0.952023988,0.7196401799,1.574212894,1496.703297
808362.5183,1.434782609,10.80434783,1.77173913,-0.6128067026,10.2716936,0.0933572711,3,0.004662004662,214500,-0.4580152672,2.030534351,-0.641221374,-0.9430284858,0.7061469265,1.571214393,1495.238095
808367.4622,1.445652174,10.82608696,1.782608696,-0.5912627169,10.29802513,0.1077199282,3,0.005106005106,195847.8261,-0.7328244275,1.893129771,-0.7022900763,-0.9430284858,0.7061469265,1.571214393,1495.970696
808372.406,1.456521739,10.82608696,1.77173913,-0.5816876122,10.3219629,0.08856971873,3,0.005106005106,195847.8261,-0.4732824427,1.816793893,-0.6870229008,-0.9475262369,0.700149925,1.575712144,1493.040293
808377.3499,1.445652174,10.80434783,1.77173913,-0.5721125075,10.2812687,0.07660083782,3,0.005106005106,195847.8261,-0.5038167939,1.908396947,-0.7480916031,-0.9475262369,0.700149925,1.575712144,1496.703297
808382.2937,1.456521739,10.82608696,1.804347826,-0.552962298,10.26929982,0.1101137044,3,0.005106005106,195847.8261,-0.4580152672,1.832061069,-0.6564885496,-0.9565217391,0.712143928,1.574212894,1493.040293
808387.2375,1.445652174,10.81521739,1.782608696,-0.5409934171,10.28845003,0.07181328546,3,0.005106005106,195847.8261,-0.6259541985,1.786259542,-0.6106870229,-0.9565217391,0.712143928,1.574212894,1491.575092
808392.1814,1.456521739,10.82608696,1.75,-0.6008378217,10.30041891,0.1029323758,3,0.004662004662,214500,-0.3664122137,1.633587786,-0.7938931298,-0.952023988,0.6986506747,1.581709145,1497.435897
808397.1252,1.456521739,10.81521739,1.77173913,-0.5673249551,10.29084381,0.09096349491,3,0.005106005106,195847.8261,-0.4580152672,1.297709924,-0.7022900763,-0.952023988,0.6986506747,1.581709145,1495.238095
808402.0691,1.467391304,10.81521739,1.782608696,-0.5840813884,10.31717534,0.08138839019,3,0.004662004662,214500,-0.5648854962,1.267175573,-0.5954198473,-0.9550224888,0.7031484258,1.574212894,1493.772894
808407.0129,1.445652174,10.82608696,1.782608696,-0.5721125075,10.28366248,0.07420706164,3,0.005106005106,195847.8261,-0.1221374046,1.251908397,-0.4427480916,-0.9550224888,0.7031484258,1.574212894,1493.772894
808411.9568,1.434782609,10.82608696,1.760869565,-0.6008378217,10.29084381,0.1005385996,3,0.004662004662,214500,-0.3969465649,1.312977099,-0.7328244275,-0.9550224888,0.7031484258,1.574212894,1498.901099
808414.4287,1.434782609,10.81521739,1.77173913,-0.5649311789,10.24296828,0.1460203471,3,0.005106005106,195847.8261,-0.5648854962,1.312977099,-0.9007633588,-0.940029985,0.700149925,1.571214393,1497.435897
808419.3726,1.423913043,10.80434783,1.77173913,-0.5864751646,10.27648115,0.09096349491,3,0.005106005106,195847.8261,-0.9312977099,1.251908397,-0.7022900763,-0.940029985,0.700149925,1.571214393,1497.435897
808424.3164,1.434782609,10.81521739,1.77173913,-0.5601436266,10.25493716,0.1795332136,3,0.004662004662,214500,-0.2748091603,1.282442748,-0.6564885496,-0.952023988,0.6956521739,1.580209895,1495.970696
808429.2603,1.467391304,10.81521739,1.782608696,-0.5888689408,10.27887493,0.1172950329,3,0.005106005106,195847.8261,-0.641221374,1.053435115,-0.6106870229,-0.952023988,0.6956521739,1.580209895,1493.772894
808434.2041,1.434782609,10.82608696,1.782608696,-0.5385996409,10.28366248,0.1005385996,3,0.004662004662,214500,-0.427480916,1.190839695,-0.8549618321,-0.9550224888,0.6971514243,1.578710645,1493.772894
808439.1479,1.413043478,10.81521739,1.77173913,-0.5769000598,10.30760024,0.08378216637,3,0.004662004662,214500,-0.7328244275,1.374045802,-0.7175572519,-0.9550224888,0.6971514243,1.578710645,1493.772894
808444.0918,1.434782609,10.81521739,1.782608696,-0.5960502693,10.31717534,0.1364452424,3,0.005106005106,195847.8261,-0.7480916031,0.8702290076,-0.7786259542,-0.9505247376,0.7136431784,1.575712144,1495.970696
808449.0356,1.434782609,10.81521739,1.782608696,-0.579293836,10.25493716,0.04069419509,3,0.004662004662,214500,-0.7633587786,1.007633588,-0.6106870229,-0.9505247376,0.7136431784,1.575712144,1494.505495
808453.9795,1.434782609,10.82608696,1.760869565,-0.5745062837,10.29084381,0.1149012567,3,0.004662004662,214500,-0.4580152672,0.8549618321,-0.9465648855,-0.9550224888,0.7016491754,1.581709145,1499.6337
808458.9233,1.445652174,10.79347826,1.77173913,-0.6223818073,10.2812687,0.06223818073,3,0.005106005106,195847.8261,-0.7022900763,1.129770992,-0.7328244275,-0.9550224888,0.7016491754,1.581709145,1495.970696
808463.8672,1.434782609,10.80434783,1.75,-0.5338120886,10.27887493,0.1244763615,3,0.004662004662,214500,-0.4427480916,1.022900763,-0.8702290076,-0.952023988,0.6941529235,1.574212894,1497.435897
808468.811,1.445652174,10.83695652,1.760869565,-0.5649311789,10.30520646,0.1484141233,3,0.004662004662,214500,-0.2595419847,0.7328244275,-0.534351145,-0.952023988,0.6941529235,1.574212894,1501.831502
808473.7549,1.456521739,10.82608696,1.782608696,-0.5433871933,10.29323758,0.1005385996,3,0.004662004662,214500,-0.3664122137,0.8244274809,-0.9923664122,-0.952023988,0.7076461769,1.571214393,1498.168498
808478.6987,1.456521739,10.82608696,1.75,-0.5362058648,10.2812687,0.078994614,3,0.005106005106,195847.8261,-0.5496183206,0.5801526718,-1.099236641,-0.952023988,0.7076461769,1.571214393,1496.703297
808483.6426,1.445652174,10.82608696,1.739130435,-0.5745062837,10.25972472,0.1125074806,3,0.004662004662,214500,-0.641221374,0.6870229008,-0.9770992366,-0.9490254873,0.712143928,1.574212894,1501.831502
808488.5864,1.47826087,10.82608696,1.760869565,-0.552962298,10.331538,0.05026929982,3,0.005106005106,195847.8261,-0.4732824427,0.3664122137,-0.5496183206,-0.9490254873,0.712143928,1.574212894,1503.296703
808493.5303,1.532608696,10.88043478,1.77173913,-0.5170556553,10.32435667,0.08856971873,3,0.004662004662,214500,-0.1526717557,0.03053435115,1.770992366,-0.9505247376,0.700149925,1.572713643,1497.435897
808498.4741,1.706521739,10.98913043,1.75,-0.3710353082,10.45601436,0.1484141233,3,0.004662004662,214500,0.07633587786,0.5496183206,8.106870229,-0.9505247376,0.700149925,1.572713643,1496.703297
808503.418,1.347826087,10.75,1.782608696,-0.7827648115,10.09455416,0.03830041891,3,0.004662004662,214500,-0.427480916,-0.7633587786,5.358778626,-0.9535232384,0.7016491754,1.572713643,1492.307692
808508.3618,1.239130435,10.67391304,1.717391304,-0.6343506882,10.19509276,0.08138839019,3,0.005106005106,195847.8261,-0.3358778626,1.160305344,0.6564885496,-0.9535232384,0.7016491754,1.572713643,1506.959707
808513.3057,1.423913043,10.7826087,1.836956522,-0.5146618791,10.25972472,0.1771394375,3,0.005106005106,195847.8261,-0.2442748092,-0.1679389313,-0.2900763359,-0.9445277361,0.6971514243,1.569715142,1487.179487
808518.2495,1.456521739,10.79347826,1.782608696,-0.5864751646,10.26929982,0.105326152,3,0.005106005106,195847.8261,-0.534351145,-0.04580152672,-0.213740458,-0.9445277361,0.6971514243,1.569715142,1490.842491
808523.1934,1.456521739,10.81521739,1.77173913,-0.5505685218,10.30281269,0.1005385996,3,0.005106005106,195847.8261,-0.320610687,0.09160305344,-0.4427480916,-0.9595202399,0.724137931,1.571214393,1496.703297
808528.1372,1.456521739,10.84782609,1.760869565,-0.5649311789,10.29323758,0.09575104728,3,0.004662004662,214500,-0.2290076336,0.3358778626,-0.534351145,-0.9595202399,0.724137931,1.571214393,1499.6337
808533.0811,1.445652174,10.83695652,1.77173913,-0.5218432077,10.22621185,0.06702573309,3,0.004662004662,214500,-0.3358778626,0.09160305344,-0.6259541985,-0.9490254873,0.7031484258,1.571214393,1498.168498
808538.0249,1.445652174,10.82608696,1.75,-0.5553560742,10.29323758,0.1484141233,3,0.005106005106,195847.8261,-0.427480916,-0.03053435115,-0.7786259542,-0.9490254873,0.7031484258,1.571214393,1496.703297
808542.9688,1.456521739,10.82608696,1.77173913,-0.5362058648,10.29084381,0.03830041891,3,0.005106005106,195847.8261,-0.5496183206,0.2595419847,-0.3511450382,-0.9475262369,0.7136431784,1.574212894,1495.970696
808547.9126,1.467391304,10.83695652,1.793478261,-0.5146618791,10.2812687,0.08378216637,3,0.004662004662,214500,-0.3511450382,0.1832061069,-0.4732824427,-0.9475262369,0.7136431784,1.574212894,1489.377289
808552.8564,1.489130435,10.83695652,1.782608696,-0.4955116697,10.27887493,0.04548174746,3,0.005106005106,195847.8261,-0.3664122137,0.1526717557,-0.04580152672,-0.9565217391,0.7151424288,1.587706147,1492.307692
808557.8003,1.5,10.82608696,1.760869565,-0.5194494315,10.32675045,0.08856971873,3,0.004662004662,214500,-0.1374045802,0.09160305344,0.4580152672,-0.9565217391,0.7151424288,1.587706147,1500.3663
808562.7441,1.586956522,10.89130435,1.77173913,-0.3997606224,10.39856373,0.1196888091,3,0.004662004662,214500,-0.2748091603,-0.09160305344,2.106870229,-0.9460269865,0.7046476762,1.581709145,1498.901099
808567.688,1.510869565,10.83695652,1.739130435,-0.5601436266,10.26690604,0.09814482346,3,0.004662004662,214500,-0.06106870229,-0.1221374046,2.473282443,-0.9460269865,0.7046476762,1.581709145,1503.296703
808572.6318,1.391304348,10.76086957,1.739130435,-0.631956912,10.20945542,0.05505685218,3,0.005106005106,195847.8261,-0.5190839695,0.2595419847,0.6717557252,-0.9490254873,0.7046476762,1.575712144,1504.761905
808577.5757,1.445652174,10.7826087,1.77173913,-0.5433871933,10.25493716,0.1436265709,3,0.004662004662,214500,-0.4122137405,-0.01526717557,-0.2748091603,-0.9490254873,0.7046476762,1.575712144,1498.901099
808582.5195,1.47826087,10.79347826,1.75,-0.5625374028,10.24057451,0.04308797127,3,0.004662004662,214500,-0.1679389313,-0.106870229,-0.2595419847,-0.9505247376,0.7166416792,1.577211394,1498.901099
808587.4634,1.597826087,10.89130435,1.72826087,-0.2609216038,10.49910233,0.08378216637,3,0.004662004662,214500,-0.6870229008,-0.07633587786,1.038167939,-0.9505247376,0.7166416792,1.577211394,1502.564103
808592.4072,1.684782609,10.9673913,1.782608696,-0.3614602035,10.36744464,0.1436265709,3,0.004662004662,214500,-1.022900763,-1.007633588,4.045801527,-0.9490254873,0.6986506747,1.578710645,1498.901099
808597.3511,1.358695652,10.75,1.760869565,-0.9766606822,9.986834231,0.07420706164,3,0.004662004662,214500,-0.6564885496,-1.20610687,2.152671756,-0.9490254873,0.6986506747,1.578710645,1497.435897
808602.2949,1.467391304,10.80434783,1.739130435,-0.4955116697,10.17354877,0.1867145422,3,0.004662004662,214500,-0.8702290076,0.5038167939,1.129770992,-0.9550224888,0.7211394303,1.574212894,1509.157509
808607.2388,1.5,10.84782609,1.826086957,-0.5362058648,10.28605625,0.2130460802,3,0.004662004662,214500,-0.6870229008,-0.9770992366,1.435114504,-0.9550224888,0.7211394303,1.574212894,1493.772894
808612.1826,1.423913043,10.80434783,1.760869565,-0.6199880311,10.18312388,0.026331538,3,0.005106005106,195847.8261,-0.8702290076,-0.7175572519,1.312977099,-0.9445277361,0.7061469265,1.569715142,1498.168498
808617.1265,1.456521739,10.79347826,1.75,-0.4356672651,10.27648115,0.1029323758,3,0.005106005106,195847.8261,-0.6564885496,-0.6259541985,1.099236641,-0.9445277361,0.7061469265,1.569715142,1497.435897
808622.0703,1.5,10.81521739,1.782608696,-0.5026929982,10.26211849,0.1220825853,3,0.004662004662,214500,-1.221374046,-0.7328244275,1.022900763,-0.9505247376,0.7166416792,1.580209895,1497.435897
808627.0142,1.434782609,10.79347826,1.782608696,-0.552962298,10.24057451,0.04069419509,3,0.005106005106,195847.8261,-0.9770992366,-1.20610687,0.4732824427,-0.9505247376,0.7166416792,1.580209895,1494.505495
808631.958,1.402173913,10.79347826,1.77173913,-0.5218432077,10.2812687,0.0933572711,3,0.004662004662,214500,-1.20610687,-0.5648854962,-0.03053435115,-0.9535232384,0.7151424288,1.583208396,1497.435897
808636.9019,1.456521739,10.82608696,1.77173913,-0.5026929982,10.28366248,0.05026929982,3,0.004662004662,214500,-0.7633587786,-0.7175572519,-0.2290076336,-0.9535232384,0.7151424288,1.583208396,1495.238095
808641.8457,1.5,10.84782609,1.782608696,-0.4643925793,10.32914423,0.105326152,3,0.005106005106,195847.8261,-0.7022900763,-0.5648854962,-0.2595419847,-0.9460269865,0.7226386807,1.584707646,1494.505495
808646.7896,1.586956522,10.85869565,1.760869565,-0.4236983842,10.331538,0.05984440455,3,0.004662004662,214500,-1.129770992,-0.641221374,1.007633588,-0.9460269865,0.7226386807,1.584707646,1499.6337
808651.7334,1.532608696,10.81521739,1.77173913,-0.5194494315,10.22381807,0.1508078995,3,0.004662004662,214500,-1.053435115,-1.496183206,0.8244274809,-0.9460269865,0.7166416792,1.577211394,1498.168498
808656.6772,1.445652174,10.79347826,1.739130435,-0.5553560742,10.22621185,0.026331538,3,0.004662004662,214500,-0.9923664122,-1.312977099,-0.2595419847,-0.9460269865,0.7166416792,1.577211394,1501.831502
808661.6211,1.47826087,10.79347826,1.75,-0.4787552364,10.2812687,0.07660083782,3,0.004662004662,214500,-0.8549618321,-0.8702290076,-0.8091603053,-0.9490254873,0.7286356822,1.586206897,1498.901099
808666.5649,1.52173913,10.83695652,1.739130435,-0.4548174746,10.28366248,0.04548174746,3,0.005106005106,195847.8261,-0.8702290076,-0.7480916031,-0.3664122137,-0.9490254873,0.7286356822,1.586206897,1501.831502
808671.5088,1.597826087,10.84782609,1.77173913,-0.3901855177,10.31478157,0.07181328546,3,0.004662004662,214500,-0.9770992366,-1.038167939,0.5648854962,-0.9475262369,0.7151424288,1.580209895,1498.901099
808676.4526,1.467391304,10.79347826,1.77173913,-0.6032315978,10.27648115,0.03111909037,3,0.004662004662,214500,-0.7175572519,-1.618320611,-0.1679389313,-0.9475262369,0.7151424288,1.580209895,1496.703297
808681.3965,1.423913043,10.77173913,1.72826087,-0.5673249551,10.2716936,0.04787552364,3,0.004662004662,214500,-0.8091603053,-1.114503817,-1.114503817,-0.9535232384,0.7136431784,1.581709145,1501.831502
808686.3403,1.47826087,10.80434783,1.739130435,-0.5385996409,10.2716936,0.1220825853,3,0.004662004662,214500,-0.6717557252,-1.145038168,-0.8091603053,-0.9535232384,0.7136431784,1.581709145,1504.761905
808691.2842,1.5,10.79347826,1.72826087,-0.5074805506,10.26451227,0.05026929982,3,0.005106005106,195847.8261,-0.7328244275,-0.9312977099,-0.9007633588,-0.9370314843,0.7151424288,1.586206897,1506.959707
808696.228,1.543478261,10.80434783,1.717391304,-0.4667863555,10.26690604,0.007181328546,3,0.004662004662,214500,-0.320610687,-1.038167939,-1.160305344,-0.9370314843,0.7151424288,1.586206897,1514.285714
808701.1719,1.532608696,10.81521739,1.72826087,-0.4691801317,10.28366248,0.07420706164,3,0.005106005106,195847.8261,-0.5954198473,-0.8549618321,-1.435114504,-0.9445277361,0.7136431784,1.577211394,1511.355311
808706.1157,1.52173913,10.81521739,1.760869565,-0.4667863555,10.25493716,0.05026929982,3,0.004662004662,214500,-0.6564885496,-0.7786259542,-1.160305344,-0.9445277361,0.7136431784,1.577211394,1504.029304
808711.0596,1.510869565,10.82608696,1.75,-0.5122681029,10.31238779,0.06941950928,3,0.004662004662,214500,-0.6259541985,-0.4885496183,-1.06870229,-0.9475262369,0.712143928,1.578710645,1501.831502
808716.0034,1.52173913,10.82608696,1.72826087,-0.4907241173,10.30041891,0.07420706164,3,0.004662004662,214500,-0.6259541985,-0.4427480916,-1.06870229,-0.9475262369,0.712143928,1.578710645,1503.296703
808720.9473,1.5,10.81521739,1.75,-0.4979054458,10.2812687,0.07420706164,3,0.005106005106,195847.8261,-0.5648854962,-0.8091603053,-0.9923664122,-0.9610194903,0.7136431784,1.583208396,1504.029304
808725.8911,1.510869565,10.81521739,1.75,-0.4596050269,10.28366248,0.08617594255,3,0.004662004662,214500,-0.7328244275,-0.7938931298,-1.038167939,-0.9610194903,0.7136431784,1.583208396,1500.3663
808730.835,1.510869565,10.81521739,1.72826087,-0.4548174746,10.29802513,0.007181328546,3,0.004662004662,214500,-0.5190839695,-1.06870229,-0.7786259542,-0.9460269865,0.7046476762,1.586206897,1505.494505
808735.7788,1.554347826,10.80434783,1.673913043,-0.3877917415,10.27408737,-0.03590664273,3,0.004218004218,237078.9474,-0.7328244275,-0.9465648855,-1.022900763,-0.9460269865,0.7046476762,1.586206897,1517.948718
808740.7227,1.619565217,10.81521739,1.652173913,-0.3064033513,10.27887493,-0.007181328546,3,0.004662004662,214500,-0.3358778626,-1.20610687,-1.236641221,-0.9460269865,0.7046476762,1.586206897,1528.205128
808743.1946,1.641304348,10.81521739,1.673913043,-0.3135846798,10.24536206,-0.03590664273,3,0.005106005106,195847.8261,-0.5038167939,-0.7786259542,-1.038167939,-0.9505247376,0.7346326837,1.584707646,1528.205128
808748.1384,1.673913043,10.80434783,1.641304348,-0.3782166367,10.30281269,-0.05505685218,3,0.005106005106,195847.8261,-0.6106870229,-0.9618320611,-0.9312977099,-0.9505247376,0.7346326837,1.584707646,1534.065934
808753.0823,1.663043478,10.81521739,1.663043478,-0.3494913226,10.28605625,-0.05745062837,3,0.004662004662,214500,-0.5038167939,-1.083969466,-0.8702290076,-0.9505247376,0.7331334333,1.583208396,1524.542125
808758.0261,1.706521739,10.81521739,1.619565217,-0.1723518851,10.29323758,-0.13165769,3,0.004662004662,214500,-0.1221374046,-1.358778626,-0.7175572519,-0.9505247376,0.7331334333,1.583208396,1530.40293
808762.97,1.815217391,10.80434783,1.554347826,-0.1460203471,10.26451227,-0.1651705566,3,0.004662004662,214500,-0.7786259542,-1.679389313,-0.7328244275,-0.9550224888,0.7166416792,1.586206897,1547.985348
808767.9138,1.782608696,10.80434783,1.565217391,-0.1938958707,10.2812687,-0.078994614,3,0.004662004662,214500,-0.3816793893,-1.755725191,-0.8091603053,-0.9550224888,0.7166416792,1.586206897,1556.043956
808772.8577,1.684782609,10.82608696,1.619565217,-0.3638539797,10.30760024,-0.009575104728,3,0.004662004662,214500,-0.2290076336,-1.541984733,-0.5496183206,-0.9490254873,0.7106446777,1.583208396,1542.124542
808777.8015,1.760869565,10.82608696,1.619565217,-0.1555954518,10.24057451,-0.1077199282,3,0.005106005106,195847.8261,-0.1374045802,-2.213740458,-0.7938931298,-0.9490254873,0.7106446777,1.583208396,1536.263736
808782.7454,1.695652174,10.84782609,1.619565217,-0.3758228606,10.35786954,-0.05745062837,3,0.005106005106,195847.8261,-0.534351145,-2.305343511,-0.6106870229,-0.9475262369,0.712143928,1.592203898,1536.996337
808787.6892,1.684782609,10.82608696,1.641304348,-0.3231597846,10.34590066,-0.06223818073,3,0.005106005106,195847.8261,-0.2290076336,-2.610687023,-0.7480916031,-0.9475262369,0.712143928,1.592203898,1533.333333
808792.6331,1.586956522,10.83695652,1.706521739,-0.4141232795,10.25014961,0.06702573309,3,0.004662004662,214500,-0.2900763359,-2.671755725,-0.9160305344,-0.9490254873,0.7211394303,1.577211394,1520.879121
808797.5769,1.630434783,10.83695652,1.663043478,-0.3399162178,10.36505087,-0.02154398564,3,0.004662004662,214500,-0.427480916,-2.534351145,-0.5496183206,-0.9490254873,0.7211394303,1.577211394,1517.948718
808802.5208,1.673913043,10.82608696,1.652173913,-0.3255535607,10.28605625,-0.03830041891,3,0.004662004662,214500,-0.5954198473,-3.175572519,-0.641221374,-0.9580209895,0.7181409295,1.584707646,1525.274725
808807.4646,1.75,10.82608696,1.608695652,-0.1651705566,10.30999402,-0.1125074806,3,0.004662004662,214500,-0.3816793893,-3.221374046,-0.5801526718,-0.9580209895,0.7181409295,1.584707646,1537.728938
808812.4084,1.902173913,10.79347826,1.52173913,-0.13165769,10.25493716,-0.2752842609,3,0.004662004662,214500,-0.3053435115,-3.816793893,-0.3511450382,-0.9550224888,0.724137931,1.584707646,1554.578755
808817.3523,1.663043478,10.82608696,1.619565217,-0.5960502693,10.3722322,0.1220825853,3,0.004662004662,214500,-0.3664122137,-3.358778626,-0.7633587786,-0.9550224888,0.724137931,1.584707646,1545.054945
808822.2961,1.543478261,10.83695652,1.75,-0.5098743268,10.30999402,0.1077199282,3,0.004662004662,214500,-0.3053435115,-3.664122137,-0.5648854962,-0.9595202399,0.7226386807,1.587706147,1512.087912
808827.24,1.489130435,10.86956522,1.793478261,-0.5194494315,10.32435667,0.1340514662,3,0.004662004662,214500,-0.5038167939,-3.86259542,-0.8091603053,-0.9595202399,0.7226386807,1.587706147,1494.505495
808832.1838,1.641304348,10.80434783,1.630434783,-0.1915020946,10.30520646,-0.2321962896,3,0.004662004662,214500,-0.06106870229,-4.152671756,-0.8244274809,-0.9505247376,0.7226386807,1.575712144,1520.14652
808837.1277,1.75,10.83695652,1.597826087,-0.1220825853,10.25733094,-0.1651705566,3,0.004662004662,214500,-0.01526717557,-3.984732824,-0.7786259542,-0.9505247376,0.7226386807,1.575712144,1538.461538
808842.0715,1.77173913,10.81521739,1.532608696,-0.1819269898,10.16397367,-0.157989228,3,0.004662004662,214500,-0.320610687,-4.213740458,-0.6717557252,-0.9580209895,0.7301349325,1.590704648,1553.113553
808847.0154,1.684782609,10.80434783,1.619565217,-0.5625374028,10.38659485,0.1795332136,3,0.004662004662,214500,-0.09160305344,-4.671755725,-0.5190839695,-0.9580209895,0.7301349325,1.590704648,1544.322344
808851.9592,1.641304348,10.85869565,1.739130435,0.09575104728,10.673848,-0.04548174746,3,0.004662004662,214500,-0.320610687,-4.335877863,0.07633587786,-0.9490254873,0.7301349325,1.575712144,1519.413919
808856.9031,1.619565217,10.95652174,2.108695652,-1.788150808,9.429084381,0.02872531418,3,0.004662004662,214500,-0.7938931298,-6.732824427,9.664122137,-0.9490254873,0.7301349325,1.575712144,1463.736264
808861.8469,1.032608696,10.66304348,1.684782609,-0.8761220826,10.19509276,-0.04548174746,3,0.004662004662,214500,-0.3969465649,-4.41221374,-0.7938931298,-0.9535232384,0.7301349325,1.587706147,1499.6337
808866.7908,1.597826087,10.82608696,1.739130435,-0.0933572711,10.54219031,0.421304608,3,0.004662004662,214500,-0.3053435115,-2.717557252,-0.7938931298,-0.9535232384,0.7301349325,1.587706147,1520.14652
808871.7346,1.934782609,10.67391304,1.467391304,0.1149012567,10.00359066,-0.6199880311,3,0.005106005106,195847.8261,-0.2442748092,-6.244274809,-0.7175572519,-0.9550224888,0.7316341829,1.586206897,1545.787546
808876.6785,1.934782609,10.81521739,1.467391304,-0.05505685218,10.3818073,-0.1077199282,3,0.005106005106,195847.8261,-0.213740458,-5.435114504,-0.6106870229,-0.9550224888,0.7316341829,1.586206897,1580.21978
808881.6223,1.804347826,10.81521739,1.565217391,-0.342309994,10.3219629,-0.004787552364,3,0.005106005106,195847.8261,-0.07633587786,-4.717557252,-0.5954198473,-0.9490254873,0.7286356822,1.592203898,1565.567766
808886.5662,1.641304348,10.90217391,1.760869565,-0.5601436266,10.35547576,0.2704967086,3,0.004662004662,214500,-0.4885496183,-5.694656489,-0.5190839695,-0.9490254873,0.7286356822,1.592203898,1528.937729
808891.51,1.445652174,10.84782609,1.836956522,-0.6463195691,10.24296828,0.2537402753,3,0.004662004662,214500,-0.3358778626,-5.526717557,-0.7328244275,-0.952023988,0.736131934,1.581709145,1488.644689
808896.4539,1.684782609,10.70652174,1.673913043,-0.1101137044,10.08258528,-0.1484141233,3,0.004662004662,214500,-0.1221374046,-6.030534351,-0.3358778626,-0.952023988,0.736131934,1.581709145,1509.157509
808901.3977,1.630434783,10.86956522,1.684782609,-0.26331538,10.30999402,0.1172950329,3,0.004662004662,214500,-0.3511450382,-6.061068702,-0.5648854962,-0.9565217391,0.7376311844,1.590704648,1520.14652
808906.3416,1.75,10.7173913,1.608695652,-0.5242369838,10.25254339,-0.1651705566,3,0.005106005106,195847.8261,-0.01526717557,-6.717557252,-0.213740458,-0.9565217391,0.7376311844,1.590704648,1528.937729
808911.2854,1.489130435,10.82608696,1.782608696,-0.5577498504,10.25972472,0.2776780371,3,0.004662004662,214500,-0.09160305344,-6.27480916,-0.5496183206,-0.952023988,0.7301349325,1.587706147,1512.087912
808916.2292,1.510869565,10.85869565,1.760869565,-0.3877917415,10.08976661,-0.07420706164,3,0.004662004662,214500,-0.3816793893,-6.885496183,-0.9618320611,-0.952023988,0.7301349325,1.587706147,1498.901099
808921.1731,1.565217391,10.80434783,1.77173913,-0.6606822262,10.24296828,0.3040095751,3,0.005106005106,195847.8261,-0.03053435115,-7.007633588,-0.4427480916,-0.9565217391,0.7406296852,1.596701649,1498.901099
808926.1169,1.358695652,10.92391304,1.967391304,-0.3973668462,10.13764213,0.09096349491,3,0.004662004662,214500,-0.1526717557,-7.572519084,-0.7175572519,-0.9565217391,0.7406296852,1.596701649,1453.479853
808931.0608,1.597826087,10.76086957,1.673913043,-0.3758228606,10.32675045,-0.1340514662,3,0.004662004662,214500,-0.1221374046,-8.152671756,-0.427480916,-0.952023988,0.7406296852,1.592203898,1501.098901
808936.0046,1.760869565,10.82608696,1.652173913,-0.210652304,10.22860563,-0.07660083782,3,0.004662004662,214500,-0.3358778626,-8.625954198,-0.7022900763,-0.952023988,0.7406296852,1.592203898,1523.809524
808940.9485,1.619565217,10.83695652,1.652173913,-0.3901855177,10.40813884,0.06702573309,3,0.004662004662,214500,0.1374045802,-7.404580153,-0.6717557252,-0.952023988,0.7436281859,1.590704648,1531.868132
808945.8923,1.75,10.77173913,1.630434783,-0.2728904847,10.29323758,-0.1771394375,3,0.004662004662,214500,-0.2290076336,-9.083969466,-0.8549618321,-0.952023988,0.7436281859,1.590704648,1535.531136
808950.8362,1.652173913,10.77173913,1.630434783,-0.2848593656,10.10652304,-0.06463195691,3,0.005106005106,195847.8261,-0.5038167939,-7.694656489,-0.7328244275,-0.9610194903,0.7391304348,1.589205397,1539.194139
808955.78,1.543478261,10.84782609,1.793478261,-0.447636146,9.903052065,-0.05745062837,3,0.004662004662,214500,-0.2595419847,-8.427480916,-0.4732824427,-0.9610194903,0.7391304348,1.589205397,1501.098901
808960.7239,1.47826087,10.86956522,1.782608696,-0.5601436266,10.39616996,0.1125074806,3,0.004662004662,214500,-0.1374045802,-8.381679389,-0.641221374,-0.9670164918,0.7451274363,1.593703148,1495.970696
808965.6677,1.293478261,10.9673913,1.956521739,-1.02214243,10.75763016,0.5338120886,3,0.005106005106,195847.8261,-0.1374045802,-8.396946565,-0.8396946565,-0.9670164918,0.7451274363,1.593703148,1465.201465
808970.6116,1.445652174,10.81521739,1.880434783,-0.3040095751,10.09216038,0.05026929982,3,0.004662004662,214500,-0.1526717557,-8.961832061,-0.8396946565,-0.964017991,0.7421289355,1.595202399,1453.479853
808975.5554,1.663043478,10.70652174,1.576086957,-0.3590664273,10.13524835,-0.03111909037,3,0.004662004662,214500,-0.2900763359,-7.312977099,-0.7328244275,-0.964017991,0.7421289355,1.595202399,1522.344322
808980.4993,1.760869565,10.7826087,1.652173913,-0.1986834231,10.18551765,-0.07420706164,3,0.004662004662,214500,0.2442748092,-9.06870229,-0.7938931298,-0.9550224888,0.7436281859,1.593703148,1531.135531
808985.4431,1.673913043,10.80434783,1.652173913,-0.3638539797,10.23339318,-0.02393776182,3,0.004662004662,214500,-0.5648854962,-8.167938931,-0.8091603053,-0.9550224888,0.7436281859,1.593703148,1531.135531
808990.387,1.782608696,10.83695652,1.652173913,0.02393776182,10.21903052,-0.2465589467,3,0.005106005106,195847.8261,-0.3511450382,-8.839694656,-0.7786259542,-0.9580209895,0.7406296852,1.590704648,1528.205128
808995.3308,1.880434783,10.85869565,1.532608696,-0.05745062837,10.51585877,-0.1149012567,3,0.004662004662,214500,-0.06106870229,-8.335877863,-0.7633587786,-0.9580209895,0.7406296852,1.590704648,1553.846154
809000.2747,1.804347826,10.75,1.695652174,-0.2417713944,10.2309994,-0.02872531418,3,0.005106005106,195847.8261,-0.04580152672,-9.267175573,-0.5801526718,-0.9625187406,0.7511244378,1.607196402,1531.135531
809005.2185,1.641304348,10.86956522,1.695652174,-0.1172950329,10.26929982,0.07420706164,3,0.004662004662,214500,-0.06106870229,-8.244274809,-0.534351145,-0.9625187406,0.7511244378,1.607196402,1525.274725
809010.1624,1.434782609,10.95652174,1.793478261,-0.763614602,10.69778576,0.2298025135,3,0.004662004662,214500,-0.6106870229,-9.480916031,-0.9618320611,-0.9595202399,0.7526236882,1.595202399,1501.098901
809015.1062,1.684782609,10.73913043,1.663043478,-0.1460203471,10.29084381,-0.1555954518,3,0.004662004662,214500,-0.3816793893,-10.58015267,-0.5648854962,-0.9595202399,0.7526236882,1.595202399,1512.820513
809020.05,1.597826087,10.83695652,1.717391304,-0.3997606224,10.38420108,0.2010771993,3,0.005106005106,195847.8261,0.06106870229,-8.79389313,-0.9770992366,-0.9595202399,0.7511244378,1.595202399,1519.413919
809024.9939,1.413043478,10.75,1.815217391,-0.7037701975,10.29323758,0.1172950329,3,0.004662004662,214500,-0.01526717557,-9.984732824,-0.6870229008,-0.9595202399,0.7511244378,1.595202399,1493.772894
809029.9377,1.445652174,10.86956522,1.891304348,-0.1029323758,10.0203471,0.1196888091,3,0.004662004662,214500,0.3053435115,-9.664122137,-0.7328244275,-0.9505247376,0.7496251874,1.59970015,1473.992674
809034.8816,1.467391304,10.97826087,1.77173913,-0.6223818073,10.72651107,0.2178336326,3,0.005106005106,195847.8261,-0.3358778626,-9.465648855,-1.236641221,-0.9505247376,0.7496251874,1.59970015,1488.644689
809039.8254,1.782608696,10.69565217,1.576086957,0.004787552364,10.53740275,-0.4715739078,3,0.005106005106,195847.8261,-0.2290076336,-11.4351145,-0.6106870229,-0.9610194903,0.7511244378,1.593703148,1522.344322
809044.7693,1.836956522,10.86956522,1.565217391,-0.184320766,9.926989826,0.3135846798,3,0.004662004662,214500,0.07633587786,-9.679389313,-0.3969465649,-0.9610194903,0.7511244378,1.593703148,1557.509158
809049.7131,1.565217391,11.07608696,1.706521739,-0.4308797127,10.28605625,0.05984440455,3,0.005106005106,195847.8261,-0.1221374046,-10.97709924,-0.9770992366,-0.9625187406,0.76011994,1.607196402,1524.542125
809054.657,1.663043478,10.91304348,1.739130435,-0.2154398564,10.7241173,0.08856971873,3,0.004218004218,237078.9474,-0.3969465649,-10.41221374,-0.7480916031,-0.9625187406,0.76011994,1.607196402,1512.087912
809059.6008,1.673913043,10.85869565,1.815217391,-0.1340514662,9.946140036,-0.007181328546,3,0.005106005106,195847.8261,-0.1374045802,-11.3740458,-0.5038167939,-0.9625187406,0.7706146927,1.602698651,1495.238095
809064.5447,1.543478261,10.9673913,1.739130435,-0.5649311789,10.79593058,0.07181328546,3,0.004662004662,214500,0.04580152672,-9.694656489,-1.435114504,-0.9625187406,0.7706146927,1.602698651,1504.029304
809069.4885,1.489130435,10.84782609,1.815217391,-0.7468581688,10.95391981,0.2417713944,3,0.004662004662,214500,-0.1832061069,-12,-0.8549618321,-0.9610194903,0.7631184408,1.604197901,1493.772894
809074.4324,1.804347826,10.76086957,1.619565217,0.2034709755,10.30281269,-0.08617594255,3,0.004662004662,214500,0.106870229,-11.38931298,-0.5954198473,-0.9610194903,0.7631184408,1.604197901,1517.216117
809079.3762,1.891304348,10.95652174,1.554347826,-0.1149012567,10.60921604,-0.06941950928,3,0.005106005106,195847.8261,-0.3664122137,-11.09923664,-1.099236641,-0.9595202399,0.772113943,1.604197901,1547.252747
809084.3201,2.010869565,10.67391304,1.489130435,-0.04069419509,10.30760024,-0.342309994,3,0.004662004662,214500,-0.2290076336,-12.51908397,-0.6106870229,-0.9595202399,0.772113943,1.604197901,1561.172161
809089.2639,1.652173913,10.68478261,1.695652174,-0.3470975464,9.622980251,0.1508078995,3,0.004662004662,214500,0.03053435115,-11.80152672,-0.7175572519,-0.9595202399,0.772113943,1.604197901,1538.461538
809091.7358,1.467391304,10.93478261,1.913043478,-0.6104129264,11.05206463,0.4189108318,3,0.004662004662,214500,0.06106870229,-12.48854962,-0.8091603053,-0.9550224888,0.7571214393,1.608695652,1497.435897
809096.6797,1.489130435,10.81521739,1.847826087,-0.7588270497,10.7336924,0.2776780371,3,0.004662004662,214500,-0.1374045802,-13.35877863,-0.8396946565,-0.9550224888,0.7571214393,1.608695652,1481.318681
809101.6235,1.347826087,11.01086957,1.826086957,-0.3782166367,10.81508079,0,3,0.004662004662,214500,-0.3511450382,-13.12977099,-1.282442748,-0.9655172414,0.7631184408,1.608695652,1476.923077
809106.5674,2.043478261,10.66304348,1.402173913,0.5242369838,9.804907241,-0.6152004788,3,0.005106005106,195847.8261,0.4580152672,-12.10687023,-0.4885496183,-0.9655172414,0.7631184408,1.608695652,1552.380952
809111.5112,2,10.81521739,1.52173913,-0.157989228,10.0706164,0.01196888091,3,0.004662004662,214500,-0.1221374046,-13.3740458,-1.083969466,-0.952023988,0.7751124438,1.620689655,1572.161172
809116.4551,2.010869565,10.60869565,1.347826087,0.09096349491,10.55415919,-0.5625374028,3,0.004662004662,214500,0.2442748092,-13.3740458,-0.03053435115,-0.952023988,0.7751124438,1.620689655,1592.673993
809121.3989,1.739130435,10.70652174,1.630434783,-0.6726511071,10.19988031,0.4141232795,3,0.005106005106,195847.8261,0.09160305344,-13.3740458,-0.8091603053,-0.9685157421,0.7691154423,1.616191904,1567.032967
809126.3428,1.467391304,10.7173913,1.641304348,-0.5338120886,10.22860563,-0.08856971873,3,0.004662004662,214500,0.1526717557,-13.64885496,-0.5801526718,-0.9685157421,0.7691154423,1.616191904,1528.937729
809131.2866,1.826086957,10.81521739,1.608695652,0.3183722322,9.97486535,-0.26331538,3,0.004662004662,214500,0.2748091603,-14.38167939,-0.320610687,-0.9565217391,0.7811094453,1.619190405,1536.263736
809136.2305,1.75,10.72826087,1.586956522,-0.6295631358,10.15439856,-0.1771394375,3,0.004662004662,214500,0.01526717557,-15.63358779,-0.6564885496,-0.9565217391,0.7811094453,1.619190405,1543.589744
809141.1743,1.25,10.88043478,1.869565217,-0.8473967684,10.04907241,0.2704967086,3,0.004662004662,214500,0.2290076336,-15.06870229,-0.7633587786,-0.9655172414,0.7886056972,1.611694153,1497.435897
809146.1182,1.456521739,10.81521739,1.826086957,-0.2010771993,10.29563136,-0.01675643327,3,0.004662004662,214500,0.3358778626,-14.47328244,-0.3969465649,-0.9655172414,0.7886056972,1.611694153,1481.318681
809151.062,1.608695652,10.83695652,1.880434783,-0.6271693597,10.30281269,0.2034709755,3,0.004662004662,214500,0.2290076336,-15.81679389,-0.5954198473,-0.9535232384,0.7976011994,1.626686657,1469.59707
809156.0059,1.423913043,10.82608696,1.847826087,-0.6247755835,10.3219629,0.2609216038,3,0.004662004662,214500,0.2442748092,-15.38931298,-0.7938931298,-0.9535232384,0.7976011994,1.626686657,1476.923077
809160.9497,1.456521739,10.82608696,1.869565217,-0.105326152,10.17833633,-0.02872531418,3,0.005106005106,195847.8261,0.2442748092,-14.01526718,-0.8854961832,-0.9565217391,0.8050974513,1.622188906,1464.468864
809165.8936,1.836956522,10.82608696,1.695652174,-0.3351286655,10.03470975,0.1771394375,3,0.004662004662,214500,0.213740458,-15.08396947,-0.4427480916,-0.9565217391,0.8050974513,1.622188906,1498.901099
809170.8374,1.663043478,10.85869565,1.760869565,-0.1460203471,10.05864752,-0.01436265709,3,0.004662004662,214500,0.3511450382,-14.94656489,-0.8854961832,-0.9685157421,0.8005997001,1.617691154,1499.6337
809175.7813,1.510869565,10.84782609,1.75,-0.5984440455,10.30281269,0.184320766,3,0.004662004662,214500,0.3511450382,-14.24427481,-0.8549618321,-0.9685157421,0.8005997001,1.617691154,1500.3663
809180.7251,1.630434783,10.81521739,1.75,-0.2800718133,10.26451227,-0.04069419509,3,0.004662004662,214500,0.2595419847,-15.49618321,-0.6870229008,-0.964017991,0.7916041979,1.620689655,1498.901099
809185.6689,1.673913043,10.82608696,1.652173913,-0.3997606224,10.35308199,0.07420706164,3,0.004662004662,214500,0.2748091603,-14.61068702,-0.7328244275,-0.964017991,0.7916041979,1.620689655,1522.344322
809190.6128,1.706521739,10.75,1.695652174,-0.2082585278,10.08497905,-0.07181328546,3,0.005106005106,195847.8261,0.3511450382,-15.32824427,-0.7022900763,-0.9565217391,0.7976011994,1.626686657,1520.14652
809195.5566,1.695652174,10.82608696,1.706521739,-0.4715739078,10.19269898,0.1460203471,3,0.004662004662,214500,0.3053435115,-15.29770992,-0.4732824427,-0.9565217391,0.7976011994,1.626686657,1520.14652
809200.5005,1.315217391,10.7826087,1.869565217,-0.8785158588,10.04428486,0.2417713944,3,0.004662004662,214500,0.3969465649,-15.40458015,-1.129770992,-0.9595202399,0.8110944528,1.632683658,1487.179487
809205.4443,1.086956522,10.84782609,2.02173913,-0.8306403351,10.20466786,0.3447037702,3,0.004662004662,214500,0.427480916,-15.60305344,-0.7480916031,-0.9595202399,0.8110944528,1.632683658,1443.956044
809210.3882,1.380434783,10.77173913,1.902173913,-0.5673249551,9.857570317,0.1627767804,3,0.004662004662,214500,0.2748091603,-15.78625954,-1.297709924,-0.964017991,0.8185907046,1.620689655,1446.886447
809215.332,1.489130435,10.81521739,1.847826087,-0.7085577499,11.13105925,0.2968282466,3,0.004662004662,214500,0.09160305344,-15.92366412,-1.374045802,-0.964017991,0.8185907046,1.620689655,1473.260073
809220.2759,1.608695652,10.66304348,1.782608696,0.08856971873,9.915020946,-0.078994614,3,0.004662004662,214500,0,-16.03053435,-0.9770992366,-0.9655172414,0.8035982009,1.634182909,1479.120879
809225.2197,1.902173913,10.79347826,1.532608696,-0.1364452424,10.37701975,-0.1005385996,3,0.005106005106,195847.8261,0.04580152672,-14.76335878,-0.9923664122,-0.9655172414,0.8035982009,1.634182909,1537.728938
