Shimmer_3B52_TimestampSync_FormattedUnix_CAL,Shimmer_3B52_Accel_LN_X_CAL,Shimmer_3B52_Accel_LN_Y_CAL,Shimmer_3B52_Accel_LN_Z_CAL,Shimmer_3B52_Accel_WR_X_CAL,Shimmer_3B52_Accel_WR_Y_CAL,Shimmer_3B52_Accel_WR_Z_CAL,Shimmer_3B52_GSR_Range_CAL,Shimmer_3B52_GSR_Skin_Conductance_CAL,Shimmer_3B52_GSR_Skin_Resistance_CAL,Shimmer_3B52_Gyro_X_CAL,Shimmer_3B52_Gyro_Y_CAL,Shimmer_3B52_Gyro_Z_CAL,Shimmer_3B52_Mag_X_CAL,Shimmer_3B52_Mag_Y_CAL,Shimmer_3B52_Mag_Z_CAL,Shimmer_3B52_PPG_A13_CAL,time
2023/06/29 14:08:38,4.02173913,-6.630434783,3.52173913,2.264512268,-9.606223818,1.766606822,2,2.462271062,406.1291282,-2.427480916,2.503816794,-1.328244275,-0.02848575712,0.6941529235,0.02548725637,1363.369963,518
2023/06/29 14:08:39,3.956521739,-6.641304348,3.402173913,2.266906044,-9.678037104,1.886295631,2,2.462271062,406.1291282,-0.4122137405,-0.2442748092,-0.9923664122,-0.03298350825,0.6911544228,0.023988006,1377.289377,519
2023/06/29 14:08:39,4.032608696,-6.576086957,3.467391304,2.266906044,-9.63016158,1.824057451,0,8.65635194,115.5221053,-0.4732824427,1.06870229,-0.3053435115,-0.035982009,0.6971514243,0.02698650675,1376.556777,519
2023/06/29 14:08:39,4.119565217,-6.576086957,3.510869565,2.38898863,-9.61101137,1.814482346,1,8.758024786,114.1809968,-0.5190839695,1.190839695,-3.053435115,-0.03148425787,0.6941529235,0.02698650675,1382.417582,519
2023/06/29 14:08:39,4.032608696,-6.597826087,3.597826087,2.290843806,-9.642130461,1.828845003,1,8.701867238,114.9178645,0.1832061069,-3.06870229,-4.717557252,-0.03298350825,0.6956521739,0.023988006,1360.43956,519
2023/06/29 14:08:39,4.206521739,-6.532608696,3.52173913,2.341113106,-9.515260323,1.879114303,1,8.645709691,115.6643047,-0.1679389313,-4.061068702,-2.229007634,-0.04047976012,0.6806596702,0.02548725637,1361.172161,519
2023/06/29 14:08:40,4.086956522,-6.543478261,3.586956522,2.42010772,-9.723518851,1.831238779,1,8.584446912,116.4897413,2.549618321,-11.75572519,-4.27480916,-0.04797601199,0.6776611694,0.02848575712,1352.380952,520
2023/06/29 14:08:40,4.326086957,-6.217391304,3.641304348,2.298025135,-9.570317175,1.871932974,1,8.51297367,117.4677661,7.022900763,-19.66412214,3.419847328,-0.04797601199,0.676161919,0.01949025487,1498.901099,520
2023/06/29 14:08:40,4.739130435,-6.467391304,3.163043478,3.085577499,-9.453022142,1.481747457,1,8.446605659,118.3907525,3.282442748,-16.48854962,22.47328244,-0.04647676162,0.6821589205,0.03148425787,1490.842491,520
2023/06/29 14:08:40,4.880434783,-6.902173913,3.467391304,3.140634351,-9.232794734,1.546379414,1,8.395553343,119.1106719,1.083969466,-20.51908397,25.70992366,-0.02248875562,0.7091454273,0.04047976012,1432.234432,520
2023/06/29 14:08:40,4.608695652,-6.195652174,3.717391304,3.183722322,-10.34590066,1.891083184,1,8.364921954,119.5468416,8.320610687,8.732824427,-16.85496183,-0.011994003,0.7226386807,0.03898050975,1526.007326,520
2023/06/29 14:08:41,4.043478261,-7.141304348,4.423913043,2.336325554,-10.60203471,2.20706164,1,8.375132417,119.4010972,9.480916031,-2.885496183,-75.78625954,-0.05547226387,0.7046476762,0.02248875562,1504.761905,521
2023/06/29 14:08:41,4.108695652,-5.02173913,4.456521739,2.38898863,-8.0502693,3.073608618,1,8.451710891,118.3192389,3.221374046,10.47328244,4.519083969,-0.143928036,0.6296851574,0,1479.85348,521
2023/06/29 14:08:41,4.619565217,-5.72826087,4.652173913,2.621184919,-7.873129862,2.901256732,1,8.635499228,115.8010641,-10.35114504,15.38931298,61.77099237,-0.08695652174,0.6476761619,0,1424.908425,521
2023/06/29 14:08:41,4.869565217,-6.239130435,4.608695652,3.576301616,-9.503291442,3.147815679,1,8.839708491,113.1259024,-33.9389313,26.53435115,-12.25954198,-0.0299850075,0.7181409295,-0.01049475262,1396.336996,521
2023/06/29 14:08:41,3.760869565,-7.445652174,3.652173913,2.81508079,-11.37522442,2.527827648,1,9.008181134,111.0102012,-13.89312977,8.030534351,-71.92366412,-0.06296851574,0.7226386807,-0.005997001499,1510.622711,521
2023/06/29 14:08:42,3.858695652,-6.565217391,2.847826087,2.058647516,-10.15200479,1.429084381,1,9.110285765,109.7660409,23.70992366,-11.20610687,-30.87022901,-0.1589205397,0.6491754123,0.005997001499,1557.509158,522
2023/06/29 14:08:42,4.543478261,-6.619565217,3.608695652,1.948533812,-8.804308797,1.395571514,1,9.161338081,109.1543605,51.00763359,-56.03053435,55.4351145,-0.1739130435,0.6131934033,-0.01949025487,1462.271062,522
2023/06/29 14:08:42,5.532608696,-6.108695652,3.467391304,4.119688809,-9.47935368,1.984440455,1,9.15623285,109.2152216,51.02290076,-81.66412214,26.53435115,-0.143928036,0.6326836582,-0.03298350825,1434.432234,522
2023/06/29 14:08:42,4.510869565,-5.663043478,2.782608696,3.238779174,-8.761220826,1.457809695,1,9.120496229,109.643157,39.06870229,-107.5572519,11.84732824,-0.1829085457,0.616191904,-0.01349325337,1490.842491,522
2023/06/29 14:08:42,4.75,-5.75,1.880434783,2.913225613,-12.86175943,0.08138839019,1,9.120496229,109.643157,36.59541985,-146.6564885,91.17557252,-0.2053973013,0.6536731634,0.05547226387,1480.586081,522
2023/06/29 14:08:43,4.945652174,-6.608695652,2.554347826,2.822262118,-10.27887493,0.1460203471,1,9.161338081,109.1543605,19.11450382,-160.2290076,47.4351145,-0.1184407796,0.7286356822,0.1169415292,1582.417582,523
2023/06/29 14:08:43,5.043478261,-6.369565217,3.032608696,2.910831837,-9.493716338,0.8809096349,1,9.22260086,108.4292831,9.740458015,-148.6717557,65.20610687,-0.01649175412,0.7766116942,0.1979010495,1512.820513,523
2023/06/29 14:08:43,5.445652174,-6.652173913,3.5,4.16277678,-9.302214243,1.620586475,1,9.248127018,108.1300028,-13.98473282,-42.71755725,3.374045802,0.1184407796,0.7976011994,0.2293853073,1435.164835,523
2023/06/29 14:08:43,5.326086957,-7.434782609,3,3.303411131,-8.610412926,2.087372831,1,9.248127018,108.1300028,-13.61832061,41.19083969,-91.09923664,0.09595202399,0.7901049475,0.2563718141,1529.67033,523
2023/06/29 14:08:43,3.391304348,-7.206521739,3.195652174,2.870137642,-11.05685218,1.182525434,1,9.237916555,108.2495164,12.32061069,25.61832061,-111.5419847,-0.1049475262,0.7091454273,0.2368815592,1487.179487,523
2023/06/29 14:08:44,4.184782609,-4.695652174,3.695652174,2.31956912,-7.925792938,1.814482346,1,9.22260086,108.4292831,14.71755725,1.374045802,0.3969465649,-0.2428785607,0.5697151424,0.2143928036,1524.542125,524
2023/06/29 14:08:44,4.858695652,-8.152173913,4.239130435,2.618791143,-8.923997606,2.324356673,1,9.186864239,108.8510697,31.8778626,-53.98473282,167.5419847,-0.2203898051,0.5967016492,0.203898051,1505.494505,524
2023/06/29 14:08:44,5.293478261,-6.195652174,3.934782609,3.085577499,-10.88928785,1.783363256,1,9.130706692,109.5205479,11.05343511,-68.07633588,23.98473282,-0.02098950525,0.7391304348,0.1934032984,1572.893773,524
2023/06/29 14:08:44,5.456521739,-6.076086957,4.076086957,3.717534411,-8.359066427,2.089766607,1,9.054128218,110.4468565,-9.557251908,23.8778626,15.74045802,0.04647676162,0.7571214393,0.2008995502,1527.472527,524
2023/06/29 14:08:44,5.293478261,-6.793478261,4.217391304,3.96888091,-9.242369838,2.7839617,1,8.977549744,111.3889679,-19.22137405,64.39694656,-57.58778626,0.04647676162,0.7451274363,0.2188905547,1504.761905,524
2023/06/29 14:08:45,4.739130435,-8.347826087,3.380434783,3.549970078,-11.3871933,2.628366248,1,8.880550344,112.6056338,-3.938931298,101.8167939,-110.3664122,-0.07496251874,0.6581709145,0.2353823088,1490.10989,525
2023/06/29 14:08:45,3.826086957,-5.695652174,3.217391304,2.13764213,-9.340514662,1.524835428,1,8.773340481,113.9816701,6.091603053,20.39694656,-70.90076336,-0.1994002999,0.5337331334,0.1784107946,1464.468864,525
2023/06/29 14:08:45,4.576086957,-4.989130435,4.336956522,2.309994016,-7.842010772,1.675643327,1,8.70697247,114.8504837,-10.33587786,14.79389313,43.52671756,-0.2188905547,0.4407796102,0.1724137931,1460.805861,525
2023/06/29 14:08:45,4.380434783,-5.467391304,5.445652174,2.692998205,-11.9904249,3.044883303,1,8.727393396,114.581749,-20.83969466,-21.54198473,84.6259542,-0.1664167916,0.4782608696,0.1709145427,1461.538462,525
2023/06/29 14:08:45,5.760869565,-5.902173913,5.336956522,3.267504488,-10.62597247,3.363255536,1,8.798866639,113.6510009,0.6717557252,-39.35877863,45.52671756,-0.1064467766,0.5547226387,0.1904047976,1528.205128,525
2023/06/29 14:08:46,5.336956522,-6.25,4.206521739,3.954518253,-9.409934171,3.131059246,1,8.895866039,112.4117647,2.748091603,57.28244275,-20.07633588,-0.03148425787,0.5637181409,0.1889055472,1482.783883,526
2023/06/29 14:08:46,4.304347826,-5.989130435,3.47826087,3.116696589,-9.522441652,2.068222621,1,8.957128818,111.6429182,-21.26717557,70.38167939,-75.22137405,-0.06596701649,0.5037481259,0.1709145427,1421.245421,526
2023/06/29 14:08:46,3.815217391,-8.032608696,2.467391304,2.695391981,-9.785757032,1.273488929,1,8.992865439,111.199262,-38.16793893,135.0839695,-94.59541985,-0.06596701649,0.4542728636,0.1574212894,1567.032967,526
2023/06/29 14:08:46,3.652173913,-6.260869565,3.217391304,1.766606822,-10.21424297,1.050867744,1,8.977549744,111.3889679,-21.29770992,43.74045802,-74,-0.1064467766,0.4287856072,0.1034482759,1519.413919,526
2023/06/29 14:08:46,3.847826087,-6.402173913,3.880434783,2.20706164,-8.809096349,2.180730102,1,8.952023586,111.7065868,-5.419847328,7.267175573,18.6259542,-0.1259370315,0.4107946027,0.08095952024,1558.974359,526
2023/06/29 14:08:47,4.532608696,-6.065217391,4.27173913,2.226211849,-10.33632555,2.843806104,1,8.921392197,112.0901288,13.06870229,-93.60305344,87.32824427,-0.1004497751,0.4782608696,0.09595202399,1506.227106,527
2023/06/29 14:08:47,4.652173913,-5.684782609,4.032608696,2.812687014,-10.19509276,2.712148414,1,8.880550344,112.6056338,-1.404580153,-52.44274809,52.85496183,-0.03298350825,0.5427286357,0.1259370315,1564.835165,527
2023/06/29 14:08:47,5.47826087,-6,4.369565217,3.607420706,-9.091561939,2.40095751,1,8.839708491,113.1259024,-12.30534351,23.78625954,17.41984733,0.01649175412,0.5667166417,0.1514242879,1473.260073,527
2023/06/29 14:08:47,4.717391304,-9.27173913,3.804347826,3.030520646,-9.745062837,2.575703172,1,8.788656175,113.783038,-18.1221374,49.70992366,-56.70229008,-0.007496251874,0.5772113943,0.143928036,1523.809524,527
2023/06/29 14:08:47,4.27173913,-8.989130435,3.641304348,2.077797726,-9.804907241,1.704368642,1,8.732498628,114.5147618,-9.282442748,75.3129771,-99.20610687,-0.1139430285,0.5427286357,0.1124437781,1665.934066,527
2023/06/29 14:08:48,3.423913043,-6.576086957,2.923913043,1.280670257,-9.460203471,1.108318372,1,8.671235849,115.3238151,8.458015267,11.8778626,-42.30534351,-0.1889055472,0.4482758621,0.05397301349,1579.487179,528
2023/06/29 14:08:48,3.717391304,-6.510869565,3.532608696,1.807301017,-8.916816278,1.297426691,1,8.666130617,115.3917526,-0.320610687,-8.687022901,47.51145038,-0.1934032984,0.4497751124,0.05397301349,1416.849817,528
2023/06/29 14:08:48,4.456521739,-7,4.130434783,2.343506882,-9.926989826,2.118491921,1,8.681446312,115.1881799,15.38931298,-57.66412214,103.7709924,-0.1469265367,0.5232383808,0.07946026987,1454.212454,528
2023/06/29 14:08:48,5.413043478,-6.75,5.184782609,3.133453022,-10.60442849,3.269898265,1,8.732498628,114.5147618,9.633587786,-14,68.13740458,-0.04347826087,0.6086956522,0.107946027,1545.054945,528
2023/06/29 14:08:48,4.891304348,-6.032608696,4.130434783,3.631358468,-8.969479354,2.855774985,1,8.778445712,113.9153824,-15.80152672,45.54198473,-50.16793893,0.007496251874,0.6206896552,0.1124437781,1528.937729,528
2023/06/29 14:08:49,4.152173913,-7.576086957,2.47826087,2.94673848,-10.1208857,1.543985637,1,8.819287565,113.3878437,-35.2519084,134.1221374,-80.96183206,-0.07496251874,0.5892053973,0.09745127436,1548.717949,529
2023/06/29 14:08:49,3.847826087,-6.652173913,2.02173913,1.769000598,-10.70736086,0.1555954518,1,8.860129418,112.8651685,-11.95419847,75.9389313,-41.19083969,-0.131934033,0.5322338831,0.02248875562,1523.076923,529
2023/06/29 14:08:49,3.815217391,-6.336956522,2.934782609,2.027528426,-9.754637941,0.5194494315,1,8.926497428,112.0260223,-24.39694656,43.03816794,-9.389312977,-0.09895052474,0.5112443778,-0.03298350825,1530.40293,529
2023/06/29 14:08:49,4.543478261,-5.956521739,3.77173913,2.740873728,-8.981448235,2.219030521,1,9.003075902,111.07315,-15.11450382,50.15267176,45.86259542,-0.04647676162,0.5382308846,-0.03898050975,1562.637363,529
2023/06/29 14:08:49,5.130434783,-6.489130435,3.97826087,3.542788749,-9.780969479,2.252543387,1,9.084759607,110.0744591,-7.282442748,56.88549618,-4.778625954,0.04347826087,0.5727136432,-0.07646176912,1540.659341,529
2023/06/29 14:08:50,4.760869565,-7.52173913,4.391304348,3.04727708,-10.05864752,2.460801915,1,9.130706692,109.5205479,-22.03053435,66.67175573,-90.73282443,0.08545727136,0.5652173913,-0.07196401799,1544.322344,530
2023/06/29 14:08:50,4.945652174,-6.054347826,4.456521739,3.023339318,-9.371633752,3.224416517,1,9.135811923,109.4593462,-13.23664122,53.34351145,-74.18320611,0.06896551724,0.5712143928,-0.06746626687,1486.446886,530
2023/06/29 14:08:50,5.173913043,-4.923913043,4.608695652,3.222022741,-8.019150209,2.848593656,1,9.110285765,109.7660409,-26.76335878,46.73282443,-29.3740458,0.07046476762,0.5532233883,-0.06446776612,1430.03663,530
2023/06/29 14:08:50,5.836956522,-8.054347826,5.22826087,3.439856373,-7.712746858,3.420706164,1,9.059233449,110.3846154,-24.01526718,31.89312977,33.02290076,0.09895052474,0.5922038981,-0.07046476762,1458.608059,530
2023/06/29 14:08:50,5.173913043,-6.086956522,4.445652174,3.183722322,-9.431478157,2.599640934,1,8.99797067,111.1361702,3.832061069,-9.374045802,48.87022901,0.1364317841,0.6116941529,-0.06446776612,1501.831502,530
2023/06/29 14:08:51,5.923913043,-6.47826087,4.076086957,3.439856373,-9.287851586,2.513464991,1,8.93160266,111.9619891,16.99236641,-7.404580153,43.02290076,0.1784107946,0.6176911544,-0.08395802099,1499.6337,531
2023/06/29 14:08:51,6.369565217,-5.836956522,4.119565217,4.68940754,-8.955116697,2.405745063,1,8.849918954,112.9953851,6.427480916,8.259541985,5.160305344,0.2128935532,0.5937031484,-0.1139430285,1511.355311,531
2023/06/29 14:08:51,5.565217391,-4.717391304,5.326086957,3.928186715,-10.49431478,2.104129264,1,8.773340481,113.9816701,-21.23664122,-29.41984733,-29.06870229,0.2173913043,0.5967016492,-0.11994003,1522.344322,531
2023/06/29 14:08:51,5.173913043,-4.989130435,4.304347826,3.157390784,-8.36385398,3.870736086,1,8.691656775,115.0528634,-36.94656489,9.58778626,-80.80916031,0.1514242879,0.6221889055,-0.1034482759,1540.659341,531
2023/06/29 14:08:51,5.130434783,-5.456521739,4.434782609,3.334530221,-8.026331538,2.721723519,1,8.620183533,116.0068108,-25.28244275,45.26717557,-0.5954198473,0.07946026987,0.6716641679,-0.09145427286,1455.677656,531
2023/06/29 14:08:52,5.532608696,-5.304347826,4.565217391,3.765409934,-8.371035308,3.016157989,1,8.553815522,116.9068935,-4.580152672,-10.64122137,8.229007634,0.1064467766,0.6941529235,-0.1004497751,1422.710623,532
2023/06/29 14:08:52,5.086956522,-6.880434783,2.891304348,4.191502095,-10.80071813,2.805505685,1,8.502763207,117.6088262,13.29770992,-32.38167939,12.25954198,0.08395802099,0.6851574213,-0.1094452774,1528.937729,532
2023/06/29 14:08:52,4.206521739,-6.032608696,2.989130435,2.769599042,-8.675044883,1.125074806,1,8.461921354,118.1764706,24.03053435,-76.70229008,13.28244275,0.05397301349,0.6746626687,-0.1259370315,1532.600733,532
2023/06/29 14:08:52,4.586956522,-7.065217391,2.706521739,2.994614004,-8.957510473,0.8880909635,1,8.421079501,118.7496211,37.69465649,-65.23664122,54.24427481,0.001499250375,0.6581709145,-0.1214392804,1541.391941,532
2023/06/29 14:08:52,4.652173913,-10.23913043,2.717391304,2.681029324,-10.81508079,1.256732496,1,8.395553343,119.1106719,47.70992366,-102.4122137,37.96946565,-0.004497751124,0.6386806597,-0.1334332834,1547.252747,532
2023/06/29 14:08:53,4.510869565,-4.663043478,2.597826087,3.080789946,-10.08976661,0.816277678,1,8.354711491,119.6929423,7.099236641,-62.91603053,0.8396946565,-0.05547226387,0.6221889055,-0.131934033,1637.362637,533
2023/06/29 14:08:53,5.282608696,-6.326086957,3.608695652,3.497307002,-9.120287253,1.263913824,1,8.324080101,120.1333947,-18.09160305,7.06870229,9.908396947,-0.09595202399,0.6311844078,-0.09895052474,1439.56044,533
2023/06/29 14:08:53,4.804347826,-6.260869565,3.076086957,3.482944345,-9.225613405,2.326750449,1,8.298553943,120.5029222,-12.07633588,39.12977099,-4.503816794,-0.06596701649,0.6551724138,-0.08095952024,1448.351648,533
2023/06/29 14:08:53,4.130434783,-7.163043478,1.967391304,3.114302813,-11.39198085,0.5314183124,1,8.283238248,120.7257319,-31.57251908,73.32824427,-66.13740458,-0.0179910045,0.6896551724,-0.1094452774,1463.736264,533
2023/06/29 14:08:53,3.456521739,-6.826086957,2.043478261,2.587672053,-10.16636744,0.4117295033,1,8.273027785,120.87473,-23.17557252,73.92366412,-82.97709924,-0.01049475262,0.7166416792,-0.09745127436,1475.457875,533
2023/06/29 14:08:54,3.967391304,-5.717391304,2.619565217,1.816876122,-8.679832436,0.5577498504,1,8.28834348,120.6513705,-6.580152672,-16.54961832,-21.51145038,-0.1154422789,0.6836581709,-0.05097451274,1505.494505,534
2023/06/29 14:08:54,4.097826087,-8.358695652,3.130434783,2.535008977,-8.979054458,1.414721724,1,8.329185333,120.059761,39.49618321,-39.51145038,105.2824427,-0.06146926537,0.7181409295,-0.05397301349,1468.131868,534
2023/06/29 14:08:54,4.434782609,-8.554347826,1.913043478,3.401555955,-9.881508079,0.5864751646,1,8.375132417,119.4010972,39.90839695,-95.4351145,58.13740458,0.02248875562,0.7451274363,-0.07646176912,1515.018315,534
2023/06/29 14:08:54,4.923913043,-5.72826087,2.597826087,3.482944345,-8.687013764,0.39497307,1,8.395553343,119.1106719,8.458015267,-31.57251908,22.29007634,0.001499250375,0.736131934,-0.06896551724,1544.322344,534
2023/06/29 14:08:54,4.804347826,-6.5,3.315217391,3.411131059,-9.139437463,1.644524237,1,8.405763806,118.9659885,-19.17557252,17.16030534,-24.33587786,-0.001499250375,0.7511244378,-0.04797601199,1460.07326,534
2023/06/29 14:08:55,4.956521739,-7.434782609,3.25,3.164572113,-10.36983842,1.354877319,1,8.405763806,118.9659885,-13.55725191,62.70229008,-28.04580153,-0.011994003,0.7511244378,-0.001499250375,1434.432234,535
2023/06/29 14:08:55,3.72826087,-6.684782609,3.141304348,2.38898863,-11.45421903,1.4171155,1,8.38534288,119.2557078,-15.86259542,43.63358779,-103.8015267,-0.1334332834,0.712143928,0.05697151424,1522.344322,535
2023/06/29 14:08:55,3.836956522,-5.826086957,2.989130435,1.99401556,-9.484141233,1.364452424,1,8.364921954,119.5468416,27.35877863,-29.22137405,-25.84732824,-0.3043478261,0.5817091454,0.06746626687,1475.457875,535
2023/06/29 14:08:55,4.293478261,-6.652173913,3.076086957,2.326750449,-8.466786355,1.503291442,1,8.364921954,119.5468416,66.80916031,-57.98473282,93.49618321,-0.299850075,0.5967016492,0.08095952024,1459.340659,535
2023/06/29 14:08:55,4.358695652,-7.076086957,1.945652174,2.570915619,-12.46439258,0.3901855177,1,8.421079501,118.7496211,62.70229008,-132.1374046,71.54198473,-0.1409295352,0.7391304348,0.08545727136,1463.003663,535
2023/06/29 14:08:56,4.815217391,-6.141304348,2.608695652,2.862956314,-8.938360263,0.6965888689,1,8.558920754,116.8371608,36.90076336,-127.389313,49.49618321,-0.1004497751,0.7751124438,0.09445277361,1535.531136,536
2023/06/29 14:08:56,4.902173913,-5.847826087,3.75,3.207660084,-9.074805506,1.436265709,1,8.752919554,114.2475941,-3.58778626,-87.66412214,27.22137405,-0.04947526237,0.8245877061,0.1589205397,1545.054945,536
2023/06/29 14:08:56,5.597826087,-6.347826087,4.5,3.755834829,-9.120287253,2.94673848,1,8.906076502,112.2828891,-7.190839695,-46,19.70992366,0.004497751124,0.8380809595,0.2053973013,1468.131868,536
2023/06/29 14:08:56,4.913043478,-6.358695652,4.195652174,3.976062238,-10.65230401,3.008976661,1,9.013286365,110.9473237,10.30534351,4.519083969,-51.9389313,0.0179910045,0.844077961,0.2143928036,1542.124542,536
2023/06/29 14:08:56,4.402173913,-6.391304348,3.304347826,2.877318971,-9.675643327,2.05625374,1,9.069443913,110.2603434,27.45038168,-16.38167939,-79.22137405,-0.1124437781,0.772113943,0.1784107946,1513.553114,536
2023/06/29 14:08:57,4.293478261,-5,3.445652174,2.55176541,-8.540993417,1.704368642,1,9.069443913,110.2603434,25.40458015,-34.42748092,-1.129770992,-0.2248875562,0.7016491754,0.1589205397,1428.571429,537
2023/06/29 14:08:57,5.043478261,-7.641304348,3.184782609,3.097546379,-9.625374028,1.642130461,1,9.043917755,110.5715495,18.01526718,-55.45038168,83.11450382,-0.1874062969,0.7271364318,0.1814092954,1430.03663,537
2023/06/29 14:08:57,4.641304348,-7.967391304,2.597826087,3.037701975,-9.905445841,1.773788151,1,8.99797067,111.1361702,33.17557252,-125.6641221,81.81679389,-0.01349325337,0.8350824588,0.1904047976,1552.380952,537
2023/06/29 14:08:57,5.043478261,-5.858695652,3.293478261,3.346499102,-8.598444045,1.192100539,1,8.936707891,111.8980291,8.122137405,-82.42748092,46.18320611,0.1259370315,0.8515742129,0.1769115442,1461.538462,537
2023/06/29 14:08:57,4.97826087,-6.77173913,4.5,4.107719928,-9.043686415,2.489527229,1,8.860129418,112.8651685,-11.38931298,6.65648855,-9.435114504,0.203898051,0.8500749625,0.179910045,1435.164835,537
2023/06/29 14:08:58,4.858695652,-7.663043478,3.97826087,3.648114901,-10.92040694,2.508677439,1,8.773340481,113.9816701,-6.015267176,59.4351145,-39.02290076,0.1514242879,0.8500749625,0.2308845577,1490.842491,538
2023/06/29 14:08:58,3.815217391,-7.717391304,3.652173913,3.250748055,-11.42070616,2.247755835,1,8.681446312,115.1881799,15.41984733,68.36641221,-89.70992366,-0.00299850075,0.8350824588,0.2473763118,1635.164835,538
2023/06/29 14:08:58,3.847826087,-4.956521739,3.423913043,2.080191502,-8.904847397,1.733093956,1,8.589552144,116.4205052,10.6870229,11.78625954,-64.99236641,-0.1814092954,0.7256371814,0.1964017991,1476.190476,538
2023/06/29 14:08:58,4.217391304,-6.543478261,4.336956522,2.130460802,-7.863554758,2.092160383,1,8.507868438,117.5382538,0.9770992366,-5.58778626,71.05343511,-0.227886057,0.6596701649,0.1844077961,1476.190476,538
2023/06/29 14:08:58,4.75,-8.72826087,4.576086957,2.980251346,-9.606223818,3.157390784,1,8.441500428,118.4623526,8.427480916,-62.45801527,110.870229,-0.1004497751,0.7451274363,0.2173913043,1475.457875,538
2023/06/29 14:08:59,5.5,-5.869565217,4.260869565,3.411131059,-8.993417115,3.052064632,1,8.370027185,119.473925,19.22137405,-61.40458015,60.67175573,0.09595202399,0.808095952,0.23988006,1460.07326,539
2023/06/29 14:08:59,5.608695652,-6.195652174,4.782608696,3.973668462,-9.232794734,2.855774985,1,8.318974869,120.2071187,-10.88549618,19.3740458,-21.96946565,0.1964017991,0.8065967016,0.1994002999,1391.208791,539
2023/06/29 14:08:59,5.532608696,-7.989130435,2.739130435,3.459006583,-9.603830042,2.147217235,1,8.278133017,120.800185,-31.14503817,55.08396947,-49.90839695,0.167916042,0.7796101949,0.2188905547,1465.934066,539
2023/06/29 14:08:59,4.25,-7.543478261,2.967391304,2.740873728,-11.49012567,0.8067025733,1,8.247501627,121.2488394,-32.0610687,87.17557252,-100.1679389,0.1214392804,0.7616191904,0.2908545727,1591.941392,539
2023/06/29 14:08:59,4.260869565,-4.804347826,3.619565217,2.034709755,-9.105924596,1.524835428,1,8.206659775,121.8522551,-6.580152672,25.55725191,-42.27480916,-0.04647676162,0.6926536732,0.5697151424,1474.725275,539
2023/06/29 14:09:00,5.347826087,-5.934782609,4.184782609,3.277079593,-8.579293836,2.166367445,1,8.176028385,122.308773,3.175572519,14.87022901,72.10687023,-0.2893553223,0.3703148426,0.4707646177,1505.494505,540
2023/06/29 14:09:00,4.717391304,-8.673913043,3.282608696,2.752842609,-10.69539198,2.029922202,1,8.16071269,122.5383172,-2.595419847,-29.12977099,71.4351145,-0.2548725637,0.3883058471,0.2953523238,1587.545788,540
2023/06/29 14:09:00,4.326086957,-6.076086957,3.108695652,1.946140036,-8.679832436,1.307001795,1,8.135186532,122.9228114,-10.47328244,-79.51145038,40.58015267,-0.1709145427,0.4587706147,0.2893553223,1465.201465,540
2023/06/29 14:09:00,4.641304348,-7.152173913,3.413043478,2.918013166,-9.311789348,1.59904249,1,8.135186532,122.9228114,-15.84732824,-28.93129771,16.30534351,-0.08095952024,0.5082458771,0.3298350825,1330.40293,540
2023/06/29 14:09:00,4.858695652,-9.641304348,3.380434783,2.89646918,-10.9850389,1.615798923,1,8.155607459,122.6150235,-8.687022901,25.75572519,-17.48091603,0.02548725637,0.5007496252,0.2593703148,1342.124542,540
2023/06/29 14:09:01,3.967391304,-6.586956522,2.543478261,1.752244165,-10.4727708,1.232794734,1,8.181133617,122.2324493,-7.328244275,66.90076336,-42.80916031,0.1949025487,0.4737631184,0.3538230885,1632.234432,541
2023/06/29 14:09:01,3.75,-6.847826087,2.858695652,1.464991023,-9.900658288,0.6870137642,1,8.201554543,121.9281046,10.85496183,-75.83206107,-66.38167939,0.00299850075,0.1709145427,0.1259370315,1457.875458,541
2023/06/29 14:09:01,3.684782609,-6.902173913,3.826086957,2.647516457,-9.488928785,1.594254937,1,8.221975469,121.6252717,17.22137405,0.5801526718,-4.824427481,0.03898050975,0.3913043478,0.2863568216,1487.912088,541
2023/06/29 14:09:01,3.717391304,-7.402173913,2.586956522,2.453620586,-9.249551167,1.551166966,1,8.227080701,121.5497983,43.69465649,-49.12977099,55.90839695,0.05697151424,0.4497751124,0.2923538231,1573.626374,541
2023/06/29 14:09:01,4.663043478,-6.141304348,2.934782609,2.709754638,-9.237582286,1.172950329,1,8.216870238,121.7008388,39.46564885,-66.41221374,60.59541985,0.1604197901,0.4722638681,0.2863568216,1566.300366,541
2023/06/29 14:09:02,5.141304348,-6.52173913,3.706521739,3.561938959,-9.168162777,1.826451227,1,8.196449311,122.0040486,10.70229008,-32.67175573,34.67175573,0.2323838081,0.4752623688,0.2653673163,1556.043956,542
2023/06/29 14:09:02,5.032608696,-6.586956522,4.184782609,3.810891682,-10.83662478,2.312387792,1,8.176028385,122.308773,-13.46564885,5.145038168,-48.50381679,0.2338830585,0.5007496252,0.287856072,1522.344322,542
2023/06/29 14:09:02,3.836956522,-6.815217391,3.673913043,2.427289048,-10.46319569,2.161579892,1,8.150502227,122.6918259,-5.20610687,30.80916031,-93.49618321,0.107946027,0.4887556222,0.3088455772,1695.238095,542
2023/06/29 14:09:02,3.967391304,-5.206521739,3.510869565,2.010771993,-8.873728306,1.869539198,1,8.130081301,123,14.36641221,-6.305343511,-29.38931298,0.023988006,0.4842578711,0.2863568216,1449.81685,542
2023/06/29 14:09:02,4.043478261,-8.195652174,3.77173913,2.355475763,-9.68043088,2.254937163,1,8.119870838,123.1546683,39.64885496,-47.90839695,79.72519084,0.05397301349,0.5187406297,0.2578710645,1504.761905,542
2023/06/29 14:09:03,4.565217391,-8.043478261,3.434782609,2.544584081,-9.572710952,1.979652902,1,8.130081301,123,39.2519084,-93.80152672,83.06870229,0.1649175412,0.5367316342,0.2143928036,1510.622711,543
2023/06/29 14:09:03,5.097826087,-5.760869565,3.793478261,3.382405745,-8.490724117,1.888689408,1,8.130081301,123,29.63358779,-100.9312977,72.01526718,0.2503748126,0.5277361319,0.1604197901,1512.087912,543
2023/06/29 14:09:03,5.5,-5.956521739,4.793478261,4.126870138,-8.787552364,2.568521843,1,8.124976069,123.0772856,-12.80916031,-32.01526718,4.885496183,0.2848575712,0.4887556222,0.1034482759,1413.186813,543
2023/06/29 14:09:03,5.293478261,-5.869565217,4.717391304,4.52663076,-11.08797127,3.317773788,1,8.119870838,123.1546683,-29.55725191,43.23664122,-63.26717557,0.2788605697,0.4932533733,0.1019490255,1363.369963,543
2023/06/29 14:09:03,4.217391304,-6.815217391,4,2.953919808,-11.66247756,2.477558348,1,8.109660374,123.3097262,-20.58015267,24.09160305,-121.9694656,0.215892054,0.5697151424,0.143928036,1509.89011,543
2023/06/29 14:09:04,4.304347826,-4.423913043,4.086956522,2.477558348,-7.70556553,2.523040096,1,8.09434468,123.5430464,8.229007634,-13.98473282,-23.34351145,0.08845577211,0.6116941529,0.1514242879,1498.168498,544
2023/06/29 14:09:04,4.586956522,-7.782608696,3.532608696,2.879712747,-8.196289647,2.50149611,1,8.068818522,123.9338817,39.00763359,-33.00763359,122.2290076,0.11994003,0.6326836582,0.1424287856,1420.512821,544
2023/06/29 14:09:04,5.097826087,-7.293478261,2.304347826,2.970676242,-9.958108917,0.7803710353,1,8.048397595,124.2483349,43.63358779,-112.6564885,79.09923664,0.2563718141,0.5892053973,0.07346326837,1580.21978,544
2023/06/29 14:09:04,4.72826087,-5.326086957,2.195652174,2.271693597,-9.891083184,-0.26331538,1,8.027976669,124.5643879,16.59541985,-124.4274809,28.73282443,0.2593703148,0.5502248876,-0.00299850075,1473.992674,544
2023/06/29 14:09:04,5.804347826,-6.108695652,4.086956522,4.16277678,-9.139437463,2.113704369,1,7.99734528,125.0414938,-6.65648855,-20.6870229,40.88549618,0.2368815592,0.5217391304,-0.05547226387,1479.120879,544
2023/06/29 14:09:05,5.02173913,-7.076086957,3.391304348,4.330341113,-12.06702573,1.979652902,1,7.971819122,125.4418828,-26.04580153,82.32061069,-51.40458015,0.2533733133,0.5382308846,-0.06146926537,1415.384615,545
2023/06/29 14:09:05,4.456521739,-6.956521739,1.554347826,2.614003591,-10.50388989,0.4811490126,1,7.951398195,125.7640449,-18.91603053,123.3435115,-81.51145038,0.2173913043,0.6371814093,-0.01649175412,1531.868132,545
2023/06/29 14:09:05,4.695652174,-5.967391304,1.260869565,2.111310592,-9.534410533,-0.7827648115,1,7.925872037,126.1690821,-25.03816794,78.88549618,-29.86259542,0.1259370315,0.700149925,0.007496251874,1581.684982,545
2023/06/29 14:09:05,5.152173913,-6.641304348,2.195652174,3.559545183,-9.024536206,-0.1388390186,1,7.895240648,126.6585839,-60.88549618,100.5496183,-7.694656489,0.1184407796,0.7511244378,0.02848575712,1471.062271,545
2023/06/29 14:09:05,4.358695652,-7.543478261,2.532608696,3.348892879,-8.387791741,0.8809096349,1,7.874819722,126.987034,-65.46564885,68.6259542,-35.52671756,0.1289355322,0.772113943,0.1274362819,1619.047619,545
2023/06/29 14:09:06,6.130434783,-6.141304348,2.891304348,4.258527828,-9.342908438,0.7133453022,1,7.854398795,127.3171921,-53.4351145,55.9389313,-22.16793893,0.08995502249,0.7496251874,0.227886057,1604.395604,546
2023/06/29 14:09:06,5.456521739,-5.217391304,2.717391304,4,-9.453022142,0.7229204069,1,7.8390831,127.5659394,-23.03816794,27.02290076,-22.58015267,0.03148425787,0.7316341829,0.2653673163,1539.92674,546
2023/06/29 14:09:06,5.445652174,-5.532608696,1.902173913,3.990424895,-8.469180132,0.763614602,1,7.828872637,127.7323117,-11.05343511,9.755725191,-4.946564885,-0.04347826087,0.7271364318,0.2563718141,1499.6337,546
2023/06/29 14:09:06,5.663043478,-5.945652174,2.065217391,4.275284261,-9.010173549,0.1484141233,1,7.818662174,127.8991185,13.4351145,-4.259541985,11.69465649,-0.04047976012,0.7301349325,0.2293853073,1467.399267,546
2023/06/29 14:09:06,5.706521739,-6.532608696,2.532608696,4.078994614,-9.649311789,0.6175942549,1,7.813556942,127.9826854,28.96183206,-47.4351145,13.70992366,-0.01349325337,0.7571214393,0.2023988006,1528.937729,546
2023/06/29 14:09:07,5.282608696,-7.184782609,2.913043478,3.791741472,-9.819269898,1.026929982,1,7.808451711,128.0663616,52.50381679,-71.64885496,14.27480916,0.007496251874,0.7661169415,0.1619190405,1519.413919,547
2023/06/29 14:09:07,4.967391304,-6.52173913,2.27173913,3.928186715,-7.068821065,1.297426691,1,7.788030785,128.4021632,53.45038168,-65.90839695,-10.67175573,0.03298350825,0.7526236882,0.09445277361,1638.095238,547
2023/06/29 14:09:07,5.282608696,-5.336956522,3.293478261,3.782166367,-7.892280072,1.682824656,1,7.777820321,128.5707253,41.9389313,-80.16793893,8.458015267,0.005997001499,0.7256371814,0.04647676162,1510.622711,547
2023/06/29 14:09:07,5.891304348,-5.489130435,4.347826087,4.979054458,-7.892280072,2.920406942,1,7.762504627,128.8243999,27.48091603,-19.19083969,43.20610687,-0.00299850075,0.7196401799,0.01499250375,1473.260073,547
2023/06/29 14:09:07,5.076086957,-3.608695652,4.195652174,3.825254339,-12.15559545,2.065828845,1,7.752294163,128.9940731,5.877862595,-73.60305344,-18.45801527,0.01499250375,0.7106446777,0.00299850075,1487.912088,547
2023/06/29 14:09:08,4.054347826,-5.597826087,3.326086957,2.554159186,-9.694793537,1.819269898,1,7.736978469,129.2494226,-0.3664122137,-48.93129771,-14.79389313,-0.02698650675,0.6896551724,0.004497751124,1492.307692,548
2023/06/29 14:09:08,4.608695652,-6.336956522,3.326086957,2.544584081,-9.189706762,1.589467385,1,7.716557542,129.5914654,25.40458015,-82.13740458,46.51908397,-0.05697151424,0.676161919,0.035982009,1435.164835,548
2023/06/29 14:09:08,5.054347826,-6.880434783,3.652173913,3.365649312,-9.745062837,1.737881508,1,7.706347079,129.7631666,43.54198473,-82.07633588,62.96183206,-0.0179910045,0.700149925,0.04347826087,1531.868132,548
2023/06/29 14:09:08,5.489130435,-3.282608696,3.467391304,4.323159785,-12.82824656,1.701974865,1,7.691031384,130.0215732,19.00763359,-9.86259542,-24.13740458,0.02548725637,0.7136431784,0.01499250375,1486.446886,548
2023/06/29 14:09:08,4.043478261,-5.858695652,2.956521739,2.850987433,-8.1005386,2.013165769,1,7.67571569,130.281011,-16.1221374,23.57251908,-54.90076336,0.007496251874,0.6896551724,-0.004497751124,1506.959707,548
2023/06/29 14:09:09,3.97826087,-5.173913043,3.663043478,2.26929982,-7.772591263,1.960502693,1,7.665505226,130.4545455,-36.99236641,51.2519084,8.625954198,-0.06596701649,0.6716641679,0.02848575712,1535.531136,549
2023/06/29 14:09:09,3.673913043,-6.923913043,3.543478261,2.116098145,-10.19269898,2.058647516,1,7.6450843,130.803005,-28.96183206,43.75572519,19.64885496,-0.02248875562,0.6851574213,0.05697151424,1422.710623,549
2023/06/29 14:09:09,3.804347826,-6.347826087,2.869565217,2.113704369,-9.54877319,1.572710952,1,7.634873837,130.9779338,-45.2519084,93.89312977,-1.099236641,0.00299850075,0.6941529235,0.08995502249,1479.120879,549
2023/06/29 14:09:09,3.184782609,-6.945652174,1.72826087,1.421903052,-9.991621783,-0.02154398564,1,7.624663374,131.1533311,-6,36.33587786,9.664122137,0.023988006,0.676161919,0.09895052474,1535.531136,549
2023/06/29 14:09:09,3.684782609,-7.010869565,1.565217391,1.565529623,-10.09934171,-0.4428485937,1,7.619558142,131.241206,-10.85496183,18.35114504,2.778625954,0.01049475262,0.6611694153,0.08245877061,1549.450549,549
2023/06/29 14:09:10,3.467391304,-7.586956522,2.152173913,1.673249551,-10.56134051,-0.052663076,1,7.624663374,131.1533311,-9.908396947,36.85496183,-10.73282443,0.01649175412,0.6416791604,0.1064467766,1457.142857,550
2023/06/29 14:09:10,3.543478261,-6.097826087,2.510869565,1.644524237,-9.998803112,0.5912627169,1,7.614452911,131.3291988,5.114503817,8.610687023,-16.10687023,-0.011994003,0.6251874063,0.1064467766,1539.194139,550
2023/06/29 14:09:10,4.239130435,-7,2.532608696,2.506283662,-9.929383603,0.7277079593,1,7.614452911,131.3291988,2.305343511,44.27480916,5.938931298,-0.005997001499,0.5997001499,0.09895052474,1571.428571,550
2023/06/29 14:09:10,3.956521739,-7.119565217,2.826086957,2.408138839,-10.06582885,0.9958108917,1,7.609347679,131.4173096,7.297709924,17.20610687,-7.34351145,-0.001499250375,0.5667166417,0.08995502249,1560.43956,550
2023/06/29 14:09:10,3.956521739,-7.423913043,3.282608696,2.434470377,-10.49910233,1.469778576,1,7.599137216,131.5938865,5.786259542,4.702290076,-7.954198473,-0.0179910045,0.5487256372,0.08095952024,1498.168498,550
2023/06/29 14:09:11,3.956521739,-7.423913043,3.282608696,2.341113106,-10.13285458,1.917414722,1,7.599137216,131.5938865,8.076335878,3.816793893,-14.59541985,-0.01499250375,0.5337331334,0.06596701649,1498.168498,551
2023/06/29 14:09:11,4.206521739,-6.619565217,3.717391304,2.379413525,-9.663674446,2.010771993,1,7.57871629,131.9484675,11.22137405,-8.030534351,6.152671756,-0.02848575712,0.5292353823,0.06446776612,1592.673993,551